stair.thisTrialN,stair.stepSize,stair.intensity,thisRow.t,notes,trial.started,fixation.started,grating.started,key_resp.started,fixation.stopped,grating.stopped,trial.stopped,corrAns,tilt,key_resp.corr,stair.response,key_resp.rt,participant,session,date,expName,psychopyVersion,frameRate,expStart,
0,2,10.0,0.09346555500087561,,0.0790919529972598,0.09346555500087561,0.5196281160024228,0.5237816770022619,0.60171751499729,0.8022516050041304,4.3962073090006015,right,10.0,1,1,3.8322778180008754,113439,001,2024-09-10_13h15.53.252,adaptive,2024.2.1,None,2024-09-10 13h16.02.299812 +0530,
1,1,8.0,4.439349965003203,,4.396447785002238,4.439349965003203,4.909784294999554,0.5185688769997796,4.943574712997361,5.2064341410005,7.234409427001083,left,-8.0,0,0,2.307232584003941,113439,001,2024-09-10_13h15.53.252,adaptive,2024.2.1,None,2024-09-10 13h16.02.299812 +0530,
2,1,9.0,7.246429858998454,,7.234597713999392,7.246429858998454,7.743811981003091,0.5152923799978453,7.76146422400052,8.044842579998658,9.050655329003348,right,9.0,0,0,1.2885312470025383,113439,001,2024-09-10_13h15.53.252,adaptive,2024.2.1,None,2024-09-10 13h16.02.299812 +0530,
3,1,10.0,9.062841468999977,,9.05084113900375,9.062841468999977,9.56325158099935,0.5004197000016575,9.5795541089974,,9.819444237000425,right,10.0,1,1,0.2535112219993607,113439,001,2024-09-10_13h15.53.252,adaptive,2024.2.1,None,2024-09-10 13h16.02.299812 +0530,
4,1,10.0,9.83167266700184,,9.81962522899994,9.83167266700184,10.326600193002378,0.5143918889953056,10.345332851000421,,10.567673137004022,right,10.0,0,0,0.22062240300147096,113439,001,2024-09-10_13h15.53.252,adaptive,2024.2.1,None,2024-09-10 13h16.02.299812 +0530,
5,1,11.0,10.579732199003047,,10.567874829001084,10.579732199003047,11.081092681000882,0.49977702899923315,11.098382156997104,,11.105570327003079,left,-11.0,0,0,0.029937300998426508,113439,001,2024-09-10_13h15.53.252,adaptive,2024.2.1,None,2024-09-10 13h16.02.299812 +0530,
6,1,12.0,11.11848689999897,,11.105757604003884,11.11848689999897,11.611318715004018,0.5113092180035892,11.628378446999704,11.912028646002,11.898577061998367,left,-12.0,0,0,0.2633486430058838,113439,001,2024-09-10_13h15.53.252,adaptive,2024.2.1,None,2024-09-10 13h16.02.299812 +0530,
7,1,13.0,11.912028646002,,11.898771820000547,11.912028646002,12.412513800998568,0.502257300002384,12.412513800998568,12.710902931001328,15.400571962003596,left,-13.0,0,0,2.996302460996958,113439,001,2024-09-10_13h15.53.252,adaptive,2024.2.1,None,2024-09-10 13h16.02.299812 +0530,
8,1,14.0,15.418430655998236,,15.400842520997685,15.418430655998236,15.89955598099914,0.5036221640039003,15.933128552998824,16.207984396998654,19.967028443003073,left,-14.0,1,1,4.05036741499498,113439,001,2024-09-10_13h15.53.252,adaptive,2024.2.1,None,2024-09-10 13h16.02.299812 +0530,
9,1,14.0,19.979238150001038,,19.96721168100339,19.979238150001038,20.47596907299885,0.5148938479978824,20.49370580699906,20.77788337200036,29.400509020000754,right,14.0,1,1,8.906039876994328,113439,001,2024-09-10_13h15.53.252,adaptive,2024.2.1,None,2024-09-10 13h16.02.299812 +0530,
10,1,14.0,29.41285518999939,,29.40069873000175,29.41285518999939,29.90974188799737,0.515153880995058,29.927246195002226,30.210560325002007,34.43448117499793,right,14.0,1,1,4.510019029999967,113439,001,2024-09-10_13h15.53.252,adaptive,2024.2.1,None,2024-09-10 13h16.02.299812 +0530,
11,0.5,13.0,34.44689683100296,,34.43466966899723,34.44689683100296,34.9426964230006,0.5152894359998754,34.9617406920006,35.244442105002236,36.41865740399953,left,-13.0,0,0,1.4516061930044089,113439,001,2024-09-10_13h15.53.252,adaptive,2024.2.1,None,2024-09-10 13h16.02.299812 +0530,
12,0.5,13.5,36.431052097002976,,36.41894626800058,36.431052097002976,36.927061112000956,0.5152036919971579,36.94575593600166,37.228748155001085,47.851663262998045,left,-13.5,0,0,10.91504859500128,113439,001,2024-09-10_13h15.53.252,adaptive,2024.2.1,None,2024-09-10 13h16.02.299812 +0530,
13,0.5,14.0,47.86380089299928,,47.85186265200173,47.86380089299928,48.35981189599988,0.5153707079953165,48.37960985799873,48.660684613998455,48.684039462998044,right,14.0,0,0,0.3079929779996746,113439,001,2024-09-10_13h15.53.252,adaptive,2024.2.1,None,2024-09-10 13h16.02.299812 +0530,
14,0.5,14.5,48.69621305399778,,48.68422769600147,48.69621305399778,49.195530092998524,0.5159929159999592,49.21191495600215,,49.41980428399984,left,-14.5,1,1,0.2142506250020233,113439,001,2024-09-10_13h15.53.252,adaptive,2024.2.1,None,2024-09-10 13h16.02.299812 +0530,
15,0.5,14.5,49.432133335998515,,49.419985296997766,49.432133335998515,49.9261781919995,0.5121913660041173,49.94438815700414,,49.951067046997196,right,14.5,0,0,0.0018602720010676421,113439,001,2024-09-10_13h15.53.252,adaptive,2024.2.1,None,2024-09-10 13h16.02.299812 +0530,
16,0.5,15.0,49.96312816799764,,49.95126029699895,49.96312816799764,50.457388217997504,0.5118045049966895,50.4742946280021,50.75953035499697,51.09894822299975,left,-15.0,0,0,0.6202860789999249,113439,001,2024-09-10_13h15.53.252,adaptive,2024.2.1,None,2024-09-10 13h16.02.299812 +0530,
17,0.5,15.5,51.110506937002356,,51.099142871004005,51.110506937002356,51.61231871099881,0.5011482659974718,51.62825677199726,,51.885448745997564,left,-15.5,1,1,0.2763121090029017,113439,001,2024-09-10_13h15.53.252,adaptive,2024.2.1,None,2024-09-10 13h16.02.299812 +0530,
18,0.5,15.5,51.89779852900392,,51.885681794003176,51.89779852900392,52.39353298700007,0.5139116249993094,52.41159908100235,52.70506338099949,52.732197520002956,left,-15.5,0,0,0.3132872960050008,113439,001,2024-09-10_13h15.53.252,adaptive,2024.2.1,None,2024-09-10 13h16.02.299812 +0530,
19,0.5,16.0,52.748952469999494,,52.73246633400413,52.748952469999494,53.241137586999685,0.5148110869995435,53.2583537160026,53.53885610499856,53.56219264300307,left,-16.0,0,0,0.3075669169993489,113439,001,2024-09-10_13h15.53.252,adaptive,2024.2.1,None,2024-09-10 13h16.02.299812 +0530,
20,0.5,16.5,53.57397214299999,,53.56250339800317,53.57397214299999,54.076376762997825,0.5022907160018804,54.076376762997825,,54.319356355998025,left,-16.5,1,1,0.24945863799803192,113439,001,2024-09-10_13h15.53.252,adaptive,2024.2.1,None,2024-09-10 13h16.02.299812 +0530,
21,0.5,16.5,54.331610551002086,,54.31954191299883,54.331610551002086,54.82718011600082,0.5137488940017647,54.8444442589971,55.1270101150003,55.233845898001164,right,16.5,1,1,0.3964772690014797,113439,001,2024-09-10_13h15.53.252,adaptive,2024.2.1,None,2024-09-10 13h16.02.299812 +0530,
22,0.5,16.5,55.246150143000705,,55.23403002499981,55.246150143000705,55.745148672998766,0.49913962300342973,55.76151169699733,56.04376069900172,56.05018799100071,left,-16.5,1,1,0.30448727699695155,113439,001,2024-09-10_13h15.53.252,adaptive,2024.2.1,None,2024-09-10 13h16.02.299812 +0530,
23,0.5,16.0,56.06223555700126,,56.05037886500213,56.06223555700126,56.55999464300112,0.515804686001502,56.57768733899866,56.861053909000475,56.86866059999738,left,-16.0,0,0,0.2937355440008105,113439,001,2024-09-10_13h15.53.252,adaptive,2024.2.1,None,2024-09-10 13h16.02.299812 +0530,
24,0.5,16.5,56.880808036003145,,56.86886336200405,56.880808036003145,57.379865155002335,0.5172531649950542,57.397911642998224,,57.515093900001375,right,16.5,0,0,0.11820817700208863,113439,001,2024-09-10_13h15.53.252,adaptive,2024.2.1,None,2024-09-10 13h16.02.299812 +0530,
25,0.5,17.0,57.526621921002516,,57.5152850509985,57.526621921002516,58.028546938003274,0.5016066140015027,58.028546938003274,,58.084214857000916,right,17.0,1,1,0.05508138999721268,113439,001,2024-09-10_13h15.53.252,adaptive,2024.2.1,None,2024-09-10 13h16.02.299812 +0530,
26,0.5,17.0,58.09630304000166,,58.08440121699823,58.09630304000166,58.593473822002125,0.5146832850005012,58.611604971003544,,58.81859733699821,right,17.0,1,1,0.21229286600282649,113439,001,2024-09-10_13h15.53.252,adaptive,2024.2.1,None,2024-09-10 13h16.02.299812 +0530,
27,0.5,17.0,58.83066517500265,,58.81878100299946,58.83066517500265,59.327284985003644,0.5148425990046235,59.344921165000414,,59.51928382500046,right,17.0,1,1,0.18035515199881047,113439,001,2024-09-10_13h15.53.252,adaptive,2024.2.1,None,2024-09-10 13h16.02.299812 +0530,
28,0.5,16.5,59.53140262299712,,59.51948600600008,59.53140262299712,60.02471220800362,0.5116575060019386,60.04191435800021,60.32882452200283,60.51895853399765,left,-16.5,1,1,0.48344020399963483,113439,001,2024-09-10_13h15.53.252,adaptive,2024.2.1,None,2024-09-10 13h16.02.299812 +0530,
29,0.5,16.5,60.53238409200276,,60.519147084,60.53238409200276,61.02929770600167,0.5152206119964831,61.04572439099866,,61.117824909000774,right,16.5,1,1,0.06700284999533324,113439,001,2024-09-10_13h15.53.252,adaptive,2024.2.1,None,2024-09-10 13h16.02.299812 +0530,
30,0.5,16.5,61.12991504200181,,61.11800404200039,61.12991504200181,61.62783558400406,0.5151937310001813,61.64463447599701,,61.73876957400353,right,16.5,1,1,0.10089248399890494,113439,001,2024-09-10_13h15.53.252,adaptive,2024.2.1,None,2024-09-10 13h16.02.299812 +0530,
31,0.5,16.0,61.75064581300103,,61.73895211100171,61.75064581300103,62.247352113998204,0.5150078509977902,62.26660658999754,62.54135405799752,62.58010926299903,right,16.0,0,0,0.3171820870047668,113439,001,2024-09-10_13h15.53.252,adaptive,2024.2.1,None,2024-09-10 13h16.02.299812 +0530,
32,0.5,16.5,62.59135273800348,,62.58031412499986,62.59135273800348,63.08353123899724,0.5094061920026434,63.102407152000524,,63.31948143000045,right,16.5,0,0,0.2263088539984892,113439,001,2024-09-10_13h15.53.252,adaptive,2024.2.1,None,2024-09-10 13h16.02.299812 +0530,
33,0.5,17.0,63.331851290000486,,63.31968590299948,63.331851290000486,63.83085147399834,0.5167983709980035,63.84899561900238,,63.946723155000655,left,-17.0,1,1,0.10486980399582535,113439,001,2024-09-10_13h15.53.252,adaptive,2024.2.1,None,2024-09-10 13h16.02.299812 +0530,
34,0.5,17.0,63.95976842500386,,63.94702596899879,63.95976842500386,64.44615260900173,0.5046411750008701,64.46331377099705,,64.54998944199906,right,17.0,0,0,0.08796923000045354,113439,001,2024-09-10_13h15.53.252,adaptive,2024.2.1,None,2024-09-10 13h16.02.299812 +0530,
35,0.5,17.5,64.56327650800085,,64.55017348399997,64.56327650800085,65.06216357200174,0.4999906929951976,65.08008003899886,,65.17033666399948,right,17.5,0,0,0.10513688000355614,113439,001,2024-09-10_13h15.53.252,adaptive,2024.2.1,None,2024-09-10 13h16.02.299812 +0530,
36,0.5,18.0,65.18233025600057,,65.1705287060031,65.18233025600057,65.67535872400185,0.5101850999999442,65.69223780000175,,65.71720184900187,right,18.0,0,0,0.03400657300517196,113439,001,2024-09-10_13h15.53.252,adaptive,2024.2.1,None,2024-09-10 13h16.02.299812 +0530,
37,0.5,18.5,65.72918027899868,,65.71740230199794,65.72918027899868,66.22396218500216,0.5119532300013816,66.24206990800303,,66.24969228100235,right,18.5,1,1,0.013784356000542175,113439,001,2024-09-10_13h15.53.252,adaptive,2024.2.1,None,2024-09-10 13h16.02.299812 +0530,
38,0.5,18.5,66.26266688600299,,66.24987699399935,66.26266688600299,66.76340911500301,0.4998161019975669,66.77963588100101,,66.84942348099867,right,18.5,1,1,0.0874933949962724,113439,001,2024-09-10_13h15.53.252,adaptive,2024.2.1,None,2024-09-10 13h16.02.299812 +0530,
39,0.5,18.5,66.86137894199783,,66.84960726300051,66.86137894199783,67.35837748800259,0.5156431489958777,67.37700986600248,,67.41963099800341,right,18.5,1,1,0.04723541800194653,113439,001,2024-09-10_13h15.53.252,adaptive,2024.2.1,None,2024-09-10 13h16.02.299812 +0530,
40,0.5,18.0,67.4318003139997,,67.41981880000094,67.4318003139997,67.92514968199976,0.5124585049998132,67.94380356799957,,68.0186265960001,right,18.0,1,1,0.08214097299787682,113439,001,2024-09-10_13h15.53.252,adaptive,2024.2.1,None,2024-09-10 13h16.02.299812 +0530,
41,0.5,18.0,68.03074116900098,,68.01881112899719,68.03074116900098,68.52513308500056,0.5140447149969987,68.54424844300229,,68.5731546570023,right,18.0,0,0,0.01895699099986814,113439,001,2024-09-10_13h15.53.252,adaptive,2024.2.1,None,2024-09-10 13h16.02.299812 +0530,
42,0.5,18.5,68.58450005699706,,68.57334288600396,68.58450005699706,69.07625524100149,0.5089464510019752,69.09385372300312,,69.12064216400177,left,-18.5,1,1,0.03118720000202302,113439,001,2024-09-10_13h15.53.252,adaptive,2024.2.1,None,2024-09-10 13h16.02.299812 +0530,
43,0.5,18.5,69.13280828000279,,69.12082570500206,69.13280828000279,69.63413952299743,0.5005950650011073,69.63413952299743,69.94204694600194,70.21860292000201,right,18.5,1,1,0.5929477679965203,113439,001,2024-09-10_13h15.53.252,adaptive,2024.2.1,None,2024-09-10 13h16.02.299812 +0530,
44,0.5,18.5,70.23080866300006,,70.21879280800204,70.23080866300006,70.72700467800314,0.5140699889961979,70.744312077004,71.02689592500246,71.05213993100188,left,-18.5,0,0,0.3140778960005264,113439,001,2024-09-10_13h15.53.252,adaptive,2024.2.1,None,2024-09-10 13h16.02.299812 +0530,
45,0.5,19.0,71.06457519099786,,71.0523286050011,71.06457519099786,71.56013844299741,0.5141818710035295,71.57767603800312,,71.58607575100177,right,19.0,0,0,0.016933877996052615,113439,001,2024-09-10_13h15.53.252,adaptive,2024.2.1,None,2024-09-10 13h16.02.299812 +0530,
46,0.5,19.5,71.59839337899757,,71.58627106899803,71.59839337899757,72.09317372900114,0.5140808740034117,72.11174534400197,72.39341841600253,72.6483584200032,right,19.5,1,1,0.5371449640006176,113439,001,2024-09-10_13h15.53.252,adaptive,2024.2.1,None,2024-09-10 13h16.02.299812 +0530,
47,0.5,19.5,72.66037337000307,,72.64854513300088,72.66037337000307,73.16039058200113,0.4995709840004565,73.17868745599844,,73.43142353899748,right,19.5,1,1,0.2754844230003073,113439,001,2024-09-10_13h15.53.252,adaptive,2024.2.1,None,2024-09-10 13h16.02.299812 +0530,
48,0.5,19.5,73.44315759999881,,73.43161673100258,73.44315759999881,73.93998732099863,0.5166391849998035,73.95946512200317,74.23938408400136,74.44629325999995,left,-19.5,0,0,0.491517466994992,113439,001,2024-09-10_13h15.53.252,adaptive,2024.2.1,None,2024-09-10 13h16.02.299812 +0530,
49,0.5,20.0,74.45779687000322,,74.44649612100329,74.45779687000322,74.94656959699932,0.5056497969999327,74.96463506999862,,75.21405711999978,left,-20.0,0,0,0.2509011180009111,113439,001,2024-09-10_13h15.53.252,adaptive,2024.2.1,None,2024-09-10 13h16.02.299812 +0530,
50,0.5,20.0,75.22547588100133,,75.21425622000243,75.22547588100133,75.72726693200093,0.5010953640012303,75.72726693200093,,75.98454325400235,left,-20.0,0,0,0.2652940329935518,113439,001,2024-09-10_13h15.53.252,adaptive,2024.2.1,None,2024-09-10 13h16.02.299812 +0530,
51,0.5,20.0,75.99681316399801,,75.9847316919986,75.99681316399801,76.490700827002,0.5109349210033542,76.50782948100095,,76.69952580000245,left,-20.0,0,0,0.19533193400275195,113439,001,2024-09-10_13h15.53.252,adaptive,2024.2.1,None,2024-09-10 13h16.02.299812 +0530,
52,0.5,20.0,76.71290600299835,,76.6997140300009,76.71290600299835,77.2074715359995,0.5132358820046647,77.22477288100345,,77.45118952699704,right,20.0,1,1,0.23044261900213314,113439,001,2024-09-10_13h15.53.252,adaptive,2024.2.1,None,2024-09-10 13h16.02.299812 +0530,
53,0.5,20.0,77.46330222499819,,77.45139418799954,77.46330222499819,77.9570933119976,0.5110261649970198,77.97470790499938,78.26020789900213,78.26842578200012,right,20.0,1,1,0.3025794849963859,113439,001,2024-09-10_13h15.53.252,adaptive,2024.2.1,None,2024-09-10 13h16.02.299812 +0530,
54,0.5,20.0,78.28072716099996,,78.26861492700118,78.28072716099996,78.77664585100138,0.5135650000011083,78.79396776200156,79.07598573200085,79.08490363400051,left,-20.0,1,1,0.2985245969975949,113439,001,2024-09-10_13h15.53.252,adaptive,2024.2.1,None,2024-09-10 13h16.02.299812 +0530,
55,0.5,19.5,79.09695235399704,,79.0850923820035,79.09695235399704,79.59333190799953,0.5152589910067036,79.61324181500095,79.89207047100354,79.93163790999824,right,19.5,0,0,0.3224382379994495,113439,001,2024-09-10_13h15.53.252,adaptive,2024.2.1,None,2024-09-10 13h16.02.299812 +0530,
56,0.5,20.0,79.94353868500184,,79.93183699200017,79.94353868500184,80.44168549199821,0.515309875998355,80.45884085899888,80.74182971600385,80.76789447299961,left,-20.0,1,1,0.3038328190013999,113439,001,2024-09-10_13h15.53.252,adaptive,2024.2.1,None,2024-09-10 13h16.02.299812 +0530,
57,0.5,20.0,80.77988593400369,,80.76809875300387,80.77988593400369,81.27413859200169,0.5124968080053804,81.29187391300366,81.57591846900323,81.63396776199806,left,-20.0,0,0,0.3492577170036384,113439,001,2024-09-10_13h15.53.252,adaptive,2024.2.1,None,2024-09-10 13h16.02.299812 +0530,
58,0.5,20.0,81.64596415199776,,81.63416164700175,81.64596415199776,82.14095592399826,0.5143138269995688,82.16052281400334,82.44401230700169,82.56715604600322,left,-20.0,1,1,0.4020893100023386,113439,001,2024-09-10_13h15.53.252,adaptive,2024.2.1,None,2024-09-10 13h16.02.299812 +0530,
59,0.5,20.0,82.57934892600315,,82.56733806199918,82.57934892600315,83.07449688499764,0.5137729320049402,83.09236681200127,83.37728886400146,83.57362182399811,right,20.0,1,1,0.48997248800151283,113439,001,2024-09-10_13h15.53.252,adaptive,2024.2.1,None,2024-09-10 13h16.02.299812 +0530,
60,0.5,20.0,83.58747083700291,,83.573813918003,83.58747083700291,84.0911059880018,0.505027509003412,84.0911059880018,84.3764405969996,84.41779377600324,left,-20.0,1,1,0.33113996700558346,113439,001,2024-09-10_13h15.53.252,adaptive,2024.2.1,None,2024-09-10 13h16.02.299812 +0530,
61,0.5,19.5,84.43000028900133,,84.4179818249977,84.43000028900133,84.9384671250009,0.5060411700033001,84.9384671250009,85.2260620599991,85.23336432500219,right,19.5,1,1,0.30277910600125324,113439,001,2024-09-10_13h15.53.252,adaptive,2024.2.1,None,2024-09-10 13h16.02.299812 +0530,
62,0.5,19.5,85.24538409600063,,85.23355237799842,85.24538409600063,85.74270919500123,0.5151327350031352,85.76037479899969,,85.98477971099783,right,19.5,0,0,0.2310321839977405,113439,001,2024-09-10_13h15.53.252,adaptive,2024.2.1,None,2024-09-10 13h16.02.299812 +0530,
63,0.5,20.0,85.99721782700362,,85.98497079299705,85.99721782700362,86.49348054700386,0.514201434001734,86.50998255099694,,86.72769189099927,right,20.0,1,1,0.22589027900539804,113439,001,2024-09-10_13h15.53.252,adaptive,2024.2.1,None,2024-09-10 13h16.02.299812 +0530,
64,0.5,20.0,86.74059325700364,,86.72800045699842,86.74059325700364,87.24366177000047,0.5038835989980726,87.24366177000047,,87.48398669999733,right,20.0,0,0,0.24216367400367744,113439,001,2024-09-10_13h15.53.252,adaptive,2024.2.1,None,2024-09-10 13h16.02.299812 +0530,
65,0.5,20.0,87.49597886399715,,87.48417291700025,87.49597886399715,87.99372468000365,0.5161133059955318,88.01179606300138,,88.18570402199839,left,-20.0,0,0,0.17887596200307598,113439,001,2024-09-10_13h15.53.252,adaptive,2024.2.1,None,2024-09-10 13h16.02.299812 +0530,
66,0.5,20.0,88.19788519300346,,88.18589282700123,88.19788519300346,88.69321821499761,0.5137220830001752,88.71119299499696,88.99301196099987,89.0352059900033,right,20.0,0,0,0.3311312360019656,113439,001,2024-09-10_13h15.53.252,adaptive,2024.2.1,None,2024-09-10 13h16.02.299812 +0530,
67,0.5,20.0,89.04735186700418,,89.03539402400202,89.04735186700418,89.54458939000324,0.5150196600006893,89.56185007900058,,89.81805429600354,right,20.0,1,1,0.2624507439977606,113439,001,2024-09-10_13h15.53.252,adaptive,2024.2.1,None,2024-09-10 13h16.02.299812 +0530,
68,0.5,20.0,89.8302007040038,,89.81824315300037,89.8302007040038,90.32677731900185,0.5156359399989014,90.3455065540038,,90.41705175300012,left,-20.0,1,1,0.07174253200355452,113439,001,2024-09-10_13h15.53.252,adaptive,2024.2.1,None,2024-09-10 13h16.02.299812 +0530,
69,0.5,20.0,90.42927221600257,,90.41723349499807,90.42927221600257,90.92562896599702,0.5147351860068738,90.9433563470011,91.22933189399919,91.21718761199736,right,20.0,0,0,0.27684449600201333,113439,001,2024-09-10_13h15.53.252,adaptive,2024.2.1,None,2024-09-10 13h16.02.299812 +0530,
70,0.5,20.0,91.22933189399919,,91.21737125200161,91.22933189399919,91.72670011100126,0.5172261179977795,91.74709093799902,,91.96701050899719,right,20.0,1,1,0.2232316390000051,113439,001,2024-09-10_13h15.53.252,adaptive,2024.2.1,None,2024-09-10 13h16.02.299812 +0530,
71,0.5,20.0,91.97912343400094,,91.96720769700187,91.97912343400094,92.47976368600212,0.4992897750053089,92.49634229799995,,92.56713115500315,right,20.0,1,1,0.08933718499611132,113439,001,2024-09-10_13h15.53.252,adaptive,2024.2.1,None,2024-09-10 13h16.02.299812 +0530,
72,0.5,20.0,92.57917874200211,,92.56731403499725,92.57917874200211,93.07733444999758,0.5155164050011081,93.09420189999946,,93.13601998700324,left,-20.0,1,1,0.046434651005256455,113439,001,2024-09-10_13h15.53.252,adaptive,2024.2.1,None,2024-09-10 13h16.02.299812 +0530,
73,0.5,19.5,93.14808762900066,,93.13621173999854,93.14808762900066,93.65673134000099,0.5001008160033962,93.65673134000099,93.94624346699857,93.98614903099951,right,19.5,0,0,0.3427716349979164,113439,001,2024-09-10_13h15.53.252,adaptive,2024.2.1,None,2024-09-10 13h16.02.299812 +0530,
74,0.5,20.0,93.99829705800221,,93.98633512900415,93.99829705800221,94.49525799800176,0.5134805859997869,94.51039210500312,,94.55198656800349,right,20.0,0,0,0.04766259899770375,113439,001,2024-09-10_13h15.53.252,adaptive,2024.2.1,None,2024-09-10 13h16.02.299812 +0530,
75,0.5,20.0,94.56300098000065,,94.55217169300158,94.56300098000065,95.06187018699711,0.5141497149961651,95.06187018699711,,95.2048976340011,right,20.0,1,1,0.13607983299880289,113439,001,2024-09-10_13h15.53.252,adaptive,2024.2.1,None,2024-09-10 13h16.02.299812 +0530,
76,0.5,20.0,95.21680979400116,,95.20508794399939,95.21680979400116,95.71362765900267,0.5129767109974637,95.73136751700076,,95.87085763699724,right,20.0,0,0,0.1454348389961524,113439,001,2024-09-10_13h15.53.252,adaptive,2024.2.1,None,2024-09-10 13h16.02.299812 +0530,
77,0.5,20.0,95.8829380169991,,95.87106166200101,95.8829380169991,96.37780902899976,0.5122591530016507,96.39483891700365,,96.43558853700233,left,-20.0,1,1,0.036546818002534565,113439,001,2024-09-10_13h15.53.252,adaptive,2024.2.1,None,2024-09-10 13h16.02.299812 +0530,
78,0.5,20.0,96.44777710400376,,96.43577721399924,96.44777710400376,96.94579909899767,0.5143950790006784,96.94579909899767,,97.05324219499744,right,20.0,1,1,0.09522905799531145,113439,001,2024-09-10_13h15.53.252,adaptive,2024.2.1,None,2024-09-10 13h16.02.299812 +0530,
79,0.5,20.0,97.06531893499778,,97.05342679000023,97.06531893499778,97.5627397040007,0.5137856779983849,97.5627397040007,,97.60075474400219,right,20.0,1,1,0.02995177000411786,113439,001,2024-09-10_13h15.53.252,adaptive,2024.2.1,None,2024-09-10 13h16.02.299812 +0530,
80,0.5,19.5,97.61202208400209,,97.60094550299982,97.61202208400209,98.11027821800235,0.5165187269958551,98.12915072900068,,98.15241514999798,right,19.5,1,1,0.018460721999872476,113439,001,2024-09-10_13h15.53.252,adaptive,2024.2.1,None,2024-09-10 13h16.02.299812 +0530,
81,0.5,19.5,98.16504702300153,,98.15259552300267,98.16504702300153,98.66426822500216,0.4993308899938711,98.68092890000116,,98.72069385000214,right,19.5,1,1,0.061554962005175184,113439,001,2024-09-10_13h15.53.252,adaptive,2024.2.1,None,2024-09-10 13h16.02.299812 +0530,
82,0.5,19.5,98.73290356300276,,98.72087876500154,98.73290356300276,99.22713539499819,0.5123921720005455,99.24498113300069,,99.25269076599943,left,-19.5,0,0,0.014368691998242866,113439,001,2024-09-10_13h15.53.252,adaptive,2024.2.1,None,2024-09-10 13h16.02.299812 +0530,
83,0.5,20.0,99.26511870400282,,99.2528814210018,99.26511870400282,99.76005732500198,0.5129052619959111,99.77899490699929,,99.90470039199863,left,-20.0,1,1,None,113439,001,2024-09-10_13h15.53.252,adaptive,2024.2.1,None,2024-09-10 13h16.02.299812 +0530,
84,0.5,20.0,99.91616203299782,,99.90489336199971,99.91616203299782,100.4123170649982,0.5127932410032372,100.42937995999819,100.70953736299998,100.7524119869995,left,-20.0,0,0,0.33076774399523856,113439,001,2024-09-10_13h15.53.252,adaptive,2024.2.1,None,2024-09-10 13h16.02.299812 +0530,
85,0.5,20.0,100.76506315400184,,100.75260404100118,100.76506315400184,101.25976262600307,0.5130353679996915,101.27708303100371,,101.43565974800003,right,20.0,1,1,0.16784377799922368,113439,001,2024-09-10_13h15.53.252,adaptive,2024.2.1,None,2024-09-10 13h16.02.299812 +0530,
86,0.5,20.0,101.44799855400197,,101.43585035300202,101.44799855400197,101.94146377399738,0.5115961349947611,101.95852324300358,,102.0168085059995,right,20.0,0,0,0.06638756699976511,113439,001,2024-09-10_13h15.53.252,adaptive,2024.2.1,None,2024-09-10 13h16.02.299812 +0530,
87,0.5,20.0,102.02813578899804,,102.01701038300234,102.02813578899804,102.52716145799786,0.5171010519989068,102.54593602100067,,102.571596021,left,-20.0,0,0,0.030115098001260776,113439,001,2024-09-10_13h15.53.252,adaptive,2024.2.1,None,2024-09-10 13h16.02.299812 +0530,
88,0.5,20.0,102.58341725100036,,102.57178317000216,102.58341725100036,103.07623246900039,0.5101438889978454,103.09334510799818,,103.16971005599771,left,-20.0,0,0,0.08054504100437043,113439,001,2024-09-10_13h15.53.252,adaptive,2024.2.1,None,2024-09-10 13h16.02.299812 +0530,
89,0.5,20.0,103.18213165400084,,103.169901235,103.18213165400084,103.67584542999975,0.5118349460026366,103.6941197940032,,103.92021469100291,right,20.0,0,0,None,113439,001,2024-09-10_13h15.53.252,adaptive,2024.2.1,None,2024-09-10 13h16.02.299812 +0530,
90,0.5,20.0,103.93320475600194,,103.92050281199772,103.93320475600194,104.42833122400043,0.5128261049976572,104.44477667200408,,104.4530879399972,left,-20.0,0,0,0.013725238000915851,113439,001,2024-09-10_13h15.53.252,adaptive,2024.2.1,None,2024-09-10 13h16.02.299812 +0530,
91,0.5,20.0,104.4652612179998,,104.4532778549983,104.4652612179998,104.96272068699909,0.5138975920053781,104.98044500799733,,105.08412530700298,right,20.0,0,0,0.10680699300428387,113439,001,2024-09-10_13h15.53.252,adaptive,2024.2.1,None,2024-09-10 13h16.02.299812 +0530,
92,0.5,20.0,105.09668927500024,,105.08431638799811,105.09668927500024,105.59515135399852,0.515884341999481,105.61174670000037,,105.68501529299829,right,20.0,1,1,0.07618505400023423,113439,001,2024-09-10_13h15.53.252,adaptive,2024.2.1,None,2024-09-10 13h16.02.299812 +0530,
93,0.5,20.0,105.69707615800144,,105.68520852499933,105.69707615800144,106.19322393099719,0.5140617439974449,106.21085014999699,,106.25286185400182,left,-20.0,1,1,0.05114150100416737,113439,001,2024-09-10_13h15.53.252,adaptive,2024.2.1,None,2024-09-10 13h16.02.299812 +0530,
94,0.5,20.0,106.26499166499707,,106.25305394000316,106.26499166499707,106.76043564500287,0.5127746979997028,106.77956426900346,107.05945261599845,107.14677461399697,right,20.0,0,0,None,113439,001,2024-09-10_13h15.53.252,adaptive,2024.2.1,None,2024-09-10 13h16.02.299812 +0530,
95,0.5,20.0,107.15810282200255,,107.14697109100234,107.15810282200255,107.66178789400146,0.5018688729978749,107.66178789400146,,107.89927936899767,right,20.0,1,1,0.2461894959997153,113439,001,2024-09-10_13h15.53.252,adaptive,2024.2.1,None,2024-09-10 13h16.02.299812 +0530,
96,0.5,20.0,107.91100419699796,,107.89946188199974,107.91100419699796,108.40903902900027,0.51570006700058,108.4259677020018,,108.45119576500292,right,20.0,0,0,0.033727443995303474,113439,001,2024-09-10_13h15.53.252,adaptive,2024.2.1,None,2024-09-10 13h16.02.299812 +0530,
97,0.5,20.0,108.46308539099846,,108.45138833099918,108.46308539099846,108.9591041120002,0.5137109240022255,108.9766271030021,109.26104379000026,109.60043380800198,left,-20.0,0,0,0.6258671340037836,113439,001,2024-09-10_13h15.53.252,adaptive,2024.2.1,None,2024-09-10 13h16.02.299812 +0530,
98,0.5,20.0,109.61254641399864,,109.60062376999849,109.61254641399864,110.10936938100349,0.5147568809989025,110.12697681399732,,110.20152648600197,right,20.0,1,1,0.08118975000252249,113439,001,2024-09-10_13h15.53.252,adaptive,2024.2.1,None,2024-09-10 13h16.02.299812 +0530,
99,0.5,20.0,110.21370809699874,,110.201709605004,110.21370809699874,110.71285327900114,0.49977933400077745,110.71285327900114,,110.81665686300403,left,-20.0,0,0,0.10390243199799443,113439,001,2024-09-10_13h15.53.252,adaptive,2024.2.1,None,2024-09-10 13h16.02.299812 +0530,
