trials.thisRepN,trials.thisTrialN,trials.thisN,trials.thisIndex,thisRow.t,notes,trial.started,num_distr,fixation.started,target.started,mouse.started,trial.stopped,mouse.x,mouse.y,mouse.leftButton,mouse.midButton,mouse.rightButton,mouse.time,mouse.clicked_name,participant,session,date,expName,psychopyVersion,frameRate,expStart,
0,0,0,0,0.047172099992167205,,0.004572399950120598,10,0.047172099992167205,0.047172099992167205,0.029824999975971878,4.849979499995243,[0.23375],[0.07875],[1],[0],[0],[4.819704100023955],['target'],718461,001,2024-10-05_14h53.16.918,Visual.Search_priyanshiAU2220101,2024.1.5,None,2024-10-05 14h53.23.690939 +0530,
1,0,1,0,4.881178899959195,,4.853660799970385,10,4.881178899959195,4.881178899959195,0.020149400050286204,6.84175929997582,[-0.331875],[-0.19875],[1],[0],[0],[1.9679714000085369],['target'],718461,001,2024-10-05_14h53.16.918,Visual.Search_priyanshiAU2220101,2024.1.5,None,2024-10-05 14h53.23.690939 +0530,
2,0,2,0,6.8598003999795765,,6.8439763999776915,5,6.8598003999795765,6.8598003999795765,0.010486199986189604,8.731839399959426,[0.405625],[-0.119375],[1],[0],[0],[1.8774492999655195],['target'],718461,001,2024-10-05_14h53.16.918,Visual.Search_priyanshiAU2220101,2024.1.5,None,2024-10-05 14h53.23.690939 +0530,
3,0,3,0,8.760920399974566,,8.7339850999997,10,8.760920399974566,8.760920399974566,0.019432899949606508,11.514919799985364,[-0.00625],[0.021875],[1],[0],[0],[2.7615238999715075],[],718461,001,2024-10-05_14h53.16.918,Visual.Search_priyanshiAU2220101,2024.1.5,None,2024-10-05 14h53.23.690939 +0530,
4,0,4,0,11.544837599969469,,11.517225199961103,10,11.544837599969469,11.544837599969469,0.02027710003312677,13.18213279999327,[0.27125],[-0.37625],[1],[0],[0],[1.644764800032135],['target'],718461,001,2024-10-05_14h53.16.918,Visual.Search_priyanshiAU2220101,2024.1.5,None,2024-10-05 14h53.23.690939 +0530,
5,0,5,0,13.21257879998302,,13.184449699998368,10,13.21257879998302,13.21257879998302,0.020186399982776493,14.814636899973266,[-0.24375],[-0.024375],[1],[0],[0],[1.6099678999744356],['target'],718461,001,2024-10-05_14h53.16.918,Visual.Search_priyanshiAU2220101,2024.1.5,None,2024-10-05 14h53.23.690939 +0530,
6,0,6,0,14.834791799949016,,14.81737649999559,5,14.834791799949016,14.834791799949016,0.012167599983513355,16.43097190000117,[-0.501875],[0.390625],[1],[0],[0],[1.60154160001548],['target'],718461,001,2024-10-05_14h53.16.918,Visual.Search_priyanshiAU2220101,2024.1.5,None,2024-10-05 14h53.23.690939 +0530,
7,0,7,0,16.46126859996002,,16.433177299972158,10,16.46126859996002,16.46126859996002,0.019926799985114485,17.980459599988535,[-0.031875],[0.044375],[1],[0],[0],[1.5273649000446312],['target'],718461,001,2024-10-05_14h53.16.918,Visual.Search_priyanshiAU2220101,2024.1.5,None,2024-10-05 14h53.23.690939 +0530,
8,0,8,0,18.010360699961893,,17.98262539994903,10,18.010360699961893,18.010360699961893,0.020308699982706457,19.615439699962735,[-0.09125],[0.250625],[1],[0],[0],[1.6125783000024967],['target'],718461,001,2024-10-05_14h53.16.918,Visual.Search_priyanshiAU2220101,2024.1.5,None,2024-10-05 14h53.23.690939 +0530,
9,0,9,0,19.64625079999678,,19.617794599966146,10,19.64625079999678,19.64625079999678,0.020082300005014986,21.881967999972403,[0.3525],[-0.30875],[1],[0],[0],[2.244139200018253],['target'],718461,001,2024-10-05_14h53.16.918,Visual.Search_priyanshiAU2220101,2024.1.5,None,2024-10-05 14h53.23.690939 +0530,
10,0,10,0,21.91203789995052,,21.88417119998485,10,21.91203789995052,21.91203789995052,0.019837999949231744,24.230244799982756,[-0.155625],[0.235625],[1],[0],[0],[2.326296299987007],['target'],718461,001,2024-10-05_14h53.16.918,Visual.Search_priyanshiAU2220101,2024.1.5,None,2024-10-05 14h53.23.690939 +0530,
11,0,11,0,24.2598597999895,,24.232470599992666,10,24.2598597999895,24.2598597999895,0.019945700012613088,25.714135099959094,[0.110625],[0.410625],[1],[0],[0],[1.4617735000210814],['target'],718461,001,2024-10-05_14h53.16.918,Visual.Search_priyanshiAU2220101,2024.1.5,None,2024-10-05 14h53.23.690939 +0530,
12,0,12,0,25.744195499981288,,25.716357600002084,10,25.744195499981288,25.744195499981288,0.01979450002545491,27.914431099954527,[-0.4425],[0.0225],[1],[0],[0],[2.1783394999802113],['target'],718461,001,2024-10-05_14h53.16.918,Visual.Search_priyanshiAU2220101,2024.1.5,None,2024-10-05 14h53.23.690939 +0530,
13,0,13,0,27.93258500000229,,27.916663699958008,5,27.93258500000229,27.93258500000229,0.01093129999935627,29.947935799951665,[-0.200625],[-0.41],[1],[0],[0],[2.0203851999831386],['target'],718461,001,2024-10-05_14h53.16.918,Visual.Search_priyanshiAU2220101,2024.1.5,None,2024-10-05 14h53.23.690939 +0530,
14,0,14,0,29.967411099991295,,29.95060649997322,5,29.967411099991295,29.967411099991295,0.011814099969342351,31.730855699977838,[0.325],[-0.449375],[1],[0],[0],[1.768642799986992],['target'],718461,001,2024-10-05_14h53.16.918,Visual.Search_priyanshiAU2220101,2024.1.5,None,2024-10-05 14h53.23.690939 +0530,
15,0,15,0,31.760901300003752,,31.73303709999891,10,31.760901300003752,31.760901300003752,0.019909400027245283,33.86321979999775,[-0.435],[0.19875],[1],[0],[0],[2.110385400010273],['target'],718461,001,2024-10-05_14h53.16.918,Visual.Search_priyanshiAU2220101,2024.1.5,None,2024-10-05 14h53.23.690939 +0530,
16,0,16,0,33.88105629995698,,33.865376799949445,5,33.88105629995698,33.88105629995698,0.010314099956303835,35.797625199949834,[-0.46625],[-0.32],[1],[0],[0],[1.9219269999885],['target'],718461,001,2024-10-05_14h53.16.918,Visual.Search_priyanshiAU2220101,2024.1.5,None,2024-10-05 14h53.23.690939 +0530,
17,0,17,0,35.827623799967114,,35.79985899996245,10,35.827623799967114,35.827623799967114,0.019765700038988143,37.38076249998994,[-0.330625],[0.0575],[1],[0],[0],[1.5612460999982432],['target'],718461,001,2024-10-05_14h53.16.918,Visual.Search_priyanshiAU2220101,2024.1.5,None,2024-10-05 14h53.23.690939 +0530,
18,0,18,0,37.39887109998381,,37.38291629997548,5,37.39887109998381,37.39887109998381,0.010226799990050495,39.28104049997637,[0.4],[0.434375],[1],[0],[0],[1.8878879999974743],['target'],718461,001,2024-10-05_14h53.16.918,Visual.Search_priyanshiAU2220101,2024.1.5,None,2024-10-05 14h53.23.690939 +0530,
19,0,19,0,39.32196269999258,,39.2835862999782,10,39.32196269999258,39.32196269999258,0.03041900001699105,42.01368969999021,[-0.24875],[-0.30375],[1],[0],[0],[2.6998429999803193],['target'],718461,001,2024-10-05_14h53.16.918,Visual.Search_priyanshiAU2220101,2024.1.5,None,2024-10-05 14h53.23.690939 +0530,
20,0,20,0,42.042333299992606,,42.015815899998415,10,42.042333299992606,42.042333299992606,0.019078299985267222,43.73037069995189,[-0.12],[-0.19],[1],[0],[0],[1.6954853999777697],['target'],718461,001,2024-10-05_14h53.16.918,Visual.Search_priyanshiAU2220101,2024.1.5,None,2024-10-05 14h53.23.690939 +0530,
21,0,21,0,43.76030329999048,,43.73260599997593,10,43.76030329999048,43.76030329999048,0.019176699977833778,45.46523549995618,[0.24],[-0.0275],[1],[0],[0],[1.7133088000118732],['target'],718461,001,2024-10-05_14h53.16.918,Visual.Search_priyanshiAU2220101,2024.1.5,None,2024-10-05 14h53.23.690939 +0530,
22,0,22,0,45.484156099963,,45.46741679997649,5,45.484156099963,45.484156099963,0.010289500001817942,47.09781429998111,[-0.161875],[-0.223125],[1],[0],[0],[1.6203049000469036],['target'],718461,001,2024-10-05_14h53.16.918,Visual.Search_priyanshiAU2220101,2024.1.5,None,2024-10-05 14h53.23.690939 +0530,
23,0,23,0,47.1167574999854,,47.09994749998441,5,47.1167574999854,47.1167574999854,0.010075199999846518,48.996983899967745,[-0.34125],[-0.456875],[1],[0],[0],[1.8868361000204459],['target'],718461,001,2024-10-05_14h53.16.918,Visual.Search_priyanshiAU2220101,2024.1.5,None,2024-10-05 14h53.23.690939 +0530,
24,0,24,0,49.02940859994851,,48.99993449996691,10,49.02940859994851,49.02940859994851,0.020953300001565367,51.23014579998562,[0.431875],[-0.253125],[1],[0],[0],[2.2094336000154726],['target'],718461,001,2024-10-05_14h53.16.918,Visual.Search_priyanshiAU2220101,2024.1.5,None,2024-10-05 14h53.23.690939 +0530,
25,0,25,0,51.264455099997576,,51.233000899956096,10,51.264455099997576,51.264455099997576,0.01984190003713593,53.33049579994986,[-0.154375],[0.416875],[1],[0],[0],[2.077802999992855],['target'],718461,001,2024-10-05_14h53.16.918,Visual.Search_priyanshiAU2220101,2024.1.5,None,2024-10-05 14h53.23.690939 +0530,
26,0,26,0,53.352046499960124,,53.332706499961205,5,53.352046499960124,53.352046499960124,0.010353699966799468,55.64686189999338,[-0.050625],[-0.41],[1],[0],[0],[2.303815899998881],['target'],718461,001,2024-10-05_14h53.16.918,Visual.Search_priyanshiAU2220101,2024.1.5,None,2024-10-05 14h53.23.690939 +0530,
27,0,27,0,55.68153469997924,,55.64943359995959,10,55.68153469997924,55.68153469997924,0.02014410000992939,57.847680099948775,[0.446875],[-0.3325],[1],[0],[0],[2.17834079999011],['target'],718461,001,2024-10-05_14h53.16.918,Visual.Search_priyanshiAU2220101,2024.1.5,None,2024-10-05 14h53.23.690939 +0530,
28,0,28,0,57.86813149997033,,57.8501143999747,5,57.86813149997033,57.86813149997033,0.01028390001738444,60.32980419998057,[-0.23875],[0.19875],[1],[0],[0],[2.469514299998991],['target'],718461,001,2024-10-05_14h53.16.918,Visual.Search_priyanshiAU2220101,2024.1.5,None,2024-10-05 14h53.23.690939 +0530,
29,0,29,0,60.363061899959575,,60.33247089997167,10,60.363061899959575,60.363061899959575,0.021413799957372248,62.57994329999201,[-0.415625],[-0.158125],[1],[0],[0],[2.226213399961125],['target'],718461,001,2024-10-05_14h53.16.918,Visual.Search_priyanshiAU2220101,2024.1.5,None,2024-10-05 14h53.23.690939 +0530,
30,0,30,0,62.611059099959675,,62.582317399966996,10,62.611059099959675,62.611059099959675,0.020085200027097017,64.26343839999754,[-0.381875],[0.293125],[1],[0],[0],[1.6611286000115797],['target'],718461,001,2024-10-05_14h53.16.918,Visual.Search_priyanshiAU2220101,2024.1.5,None,2024-10-05 14h53.23.690939 +0530,
31,0,31,0,64.29248589999042,,64.26579659996787,10,64.29248589999042,64.29248589999042,0.018834399990737438,66.24643849994754,[0.243125],[-0.355625],[1],[0],[0],[1.961883400043007],['target'],718461,001,2024-10-05_14h53.16.918,Visual.Search_priyanshiAU2220101,2024.1.5,None,2024-10-05 14h53.23.690939 +0530,
32,0,32,0,66.26435559999663,,66.24862349999603,5,66.26435559999663,66.26435559999663,0.009968600003048778,67.69632589997491,[0.054375],[-0.224375],[1],[0],[0],[1.437710399972275],['target'],718461,001,2024-10-05_14h53.16.918,Visual.Search_priyanshiAU2220101,2024.1.5,None,2024-10-05 14h53.23.690939 +0530,
33,0,33,0,67.71580419997917,,67.69990029995097,5,67.71580419997917,67.71580419997917,0.010355700040236115,69.4635223999503,[-0.280625],[-0.40875],[1],[0],[0],[1.7536158000002615],['target'],718461,001,2024-10-05_14h53.16.918,Visual.Search_priyanshiAU2220101,2024.1.5,None,2024-10-05 14h53.23.690939 +0530,
34,0,34,0,69.48190549999708,,69.46570439997595,5,69.48190549999708,69.48190549999708,0.009855900018010288,71.51343559997622,[0.1975],[0.10875],[1],[0],[0],[2.037944200041238],['target'],718461,001,2024-10-05_14h53.16.918,Visual.Search_priyanshiAU2220101,2024.1.5,None,2024-10-05 14h53.23.690939 +0530,
35,0,35,0,71.53224949998548,,71.51592979999259,5,71.53224949998548,71.53224949998548,0.010505499958526343,73.16454420000082,[-0.345],[0.24625],[1],[0],[0],[1.6382821999723092],['target'],718461,001,2024-10-05_14h53.16.918,Visual.Search_priyanshiAU2220101,2024.1.5,None,2024-10-05 14h53.23.690939 +0530,
36,0,36,0,73.1855887999991,,73.16764319996582,5,73.1855887999991,73.1855887999991,0.010474800015799701,74.81369239999913,[-0.0325],[-0.06375],[1],[0],[0],[1.6356626000488177],['target'],718461,001,2024-10-05_14h53.16.918,Visual.Search_priyanshiAU2220101,2024.1.5,None,2024-10-05 14h53.23.690939 +0530,
37,0,37,0,74.84596329997294,,74.81662269996013,10,74.84596329997294,74.84596329997294,0.019761200004722923,76.56267449998995,[-0.065625],[0.12625],[1],[0],[0],[1.726283300027717],['target'],718461,001,2024-10-05_14h53.16.918,Visual.Search_priyanshiAU2220101,2024.1.5,None,2024-10-05 14h53.23.690939 +0530,
38,0,38,0,76.59985609998694,,76.56523119995836,10,76.59985609998694,76.59985609998694,0.02261250000447035,78.54585389996646,[0.034375],[-0.015],[1],[0],[0],[1.9581535000470467],['target'],718461,001,2024-10-05_14h53.16.918,Visual.Search_priyanshiAU2220101,2024.1.5,None,2024-10-05 14h53.23.690939 +0530,
39,0,39,0,78.56515019998187,,78.54798499995377,5,78.56515019998187,78.56515019998187,0.009931899956427515,80.54675679997308,[-0.485625],[0.354375],[1],[0],[0],[1.9886198000167497],['target'],718461,001,2024-10-05_14h53.16.918,Visual.Search_priyanshiAU2220101,2024.1.5,None,2024-10-05 14h53.23.690939 +0530,
40,0,40,0,80.56643629999598,,80.55038339999737,5,80.56643629999598,80.56643629999598,0.010151299997232854,82.89566569996532,[0.22875],[-0.28],[1],[0],[0],[2.335424300050363],['target'],718461,001,2024-10-05_14h53.16.918,Visual.Search_priyanshiAU2220101,2024.1.5,None,2024-10-05 14h53.23.690939 +0530,
41,0,41,0,82.91570039995713,,82.89810179994674,5,82.91570039995713,82.91570039995713,0.011623999977018684,84.86274689994752,[-0.42],[0.416875],[1],[0],[0],[1.9530287000234239],['target'],718461,001,2024-10-05_14h53.16.918,Visual.Search_priyanshiAU2220101,2024.1.5,None,2024-10-05 14h53.23.690939 +0530,
42,0,42,0,84.89371899998514,,84.86546159995487,10,84.89371899998514,84.89371899998514,0.019391000038012862,87.38043459999608,[0.39625],[-0.353125],[1],[0],[0],[2.4957018999848515],['target'],718461,001,2024-10-05_14h53.16.918,Visual.Search_priyanshiAU2220101,2024.1.5,None,2024-10-05 14h53.23.690939 +0530,
43,0,43,0,87.41076419997262,,87.38271569996141,10,87.41076419997262,87.41076419997262,0.019229299970902503,89.26294719998259,[-0.1775],[0.12375],[1],[0],[0],[1.8611296000308357],['target'],718461,001,2024-10-05_14h53.16.918,Visual.Search_priyanshiAU2220101,2024.1.5,None,2024-10-05 14h53.23.690939 +0530,
44,0,44,0,89.29258939996362,,89.2650570999831,10,89.29258939996362,89.29258939996362,0.018825999984983355,90.89676769997459,[-0.43875],[0.315],[1],[0],[0],[1.6129052999895066],['target'],718461,001,2024-10-05_14h53.16.918,Visual.Search_priyanshiAU2220101,2024.1.5,None,2024-10-05 14h53.23.690939 +0530,
45,0,45,0,90.9275318,,90.89908669999568,10,90.9275318,90.9275318,0.019312400021590292,92.69569079997018,[0.34],[0.255],[1],[0],[0],[1.777364799985662],['target'],718461,001,2024-10-05_14h53.16.918,Visual.Search_priyanshiAU2220101,2024.1.5,None,2024-10-05 14h53.23.690939 +0530,
46,0,46,0,92.72593349998351,,92.69797869998729,10,92.72593349998351,92.72593349998351,0.019082400016486645,94.67905219999375,[-0.100625],[-0.10875],[1],[0],[0],[1.9619716999586672],['target'],718461,001,2024-10-05_14h53.16.918,Visual.Search_priyanshiAU2220101,2024.1.5,None,2024-10-05 14h53.23.690939 +0530,
47,0,47,0,94.6978500999976,,94.68171039997833,5,94.6978500999976,94.6978500999976,0.009877000004053116,97.14547529997071,[0.345625],[0.483125],[1],[0],[0],[2.454018599994015],['target'],718461,001,2024-10-05_14h53.16.918,Visual.Search_priyanshiAU2220101,2024.1.5,None,2024-10-05 14h53.23.690939 +0530,
48,0,48,0,97.17567019996932,,97.1475753999548,10,97.17567019996932,97.17567019996932,0.01898059999803081,98.34613189997617,[0.083125],[-0.125625],[1],[0],[0],[1.179524399980437],['target'],718461,001,2024-10-05_14h53.16.918,Visual.Search_priyanshiAU2220101,2024.1.5,None,2024-10-05 14h53.23.690939 +0530,
49,0,49,0,98.37643769994611,,98.3487027999945,10,98.37643769994611,98.37643769994611,0.019127200008369982,100.17921380000189,[0.321875],[-0.175],[1],[0],[0],[1.8115490999771282],['target'],718461,001,2024-10-05_14h53.16.918,Visual.Search_priyanshiAU2220101,2024.1.5,None,2024-10-05 14h53.23.690939 +0530,
50,0,50,0,100.210208399978,,100.18146479997085,10,100.210208399978,100.210208399978,0.020224800042342395,101.86340509995352,[0.2075],[-0.08125],[1],[0],[0],[1.6617954999674112],['target'],718461,001,2024-10-05_14h53.16.918,Visual.Search_priyanshiAU2220101,2024.1.5,None,2024-10-05 14h53.23.690939 +0530,
51,0,51,0,101.88170559995342,,101.86552159994608,5,101.88170559995342,101.88170559995342,0.009862400009296834,103.3289867999847,[0.365625],[-0.195625],[1],[0],[0],[1.453542799979914],['target'],718461,001,2024-10-05_14h53.16.918,Visual.Search_priyanshiAU2220101,2024.1.5,None,2024-10-05 14h53.23.690939 +0530,
52,0,52,0,103.34807099995669,,103.33195429999614,5,103.34807099995669,103.34807099995669,0.010489300009794533,105.47908719995758,[0.126875],[0.238125],[1],[0],[0],[2.136833500000648],['target'],718461,001,2024-10-05_14h53.16.918,Visual.Search_priyanshiAU2220101,2024.1.5,None,2024-10-05 14h53.23.690939 +0530,
53,0,53,0,105.49731769994833,,105.481203000003,5,105.49731769994833,105.49731769994833,0.010256699984893203,107.31183699995745,[0.426875],[-0.269375],[1],[0],[0],[1.8204513000091538],['target'],718461,001,2024-10-05_14h53.16.918,Visual.Search_priyanshiAU2220101,2024.1.5,None,2024-10-05 14h53.23.690939 +0530,
54,0,54,0,107.34176290000323,,107.31404939998174,10,107.34176290000323,107.34176290000323,0.019345000036992133,109.64570669998648,[-0.368125],[0.480625],[1],[0],[0],[2.3123972000321373],['target'],718461,001,2024-10-05_14h53.16.918,Visual.Search_priyanshiAU2220101,2024.1.5,None,2024-10-05 14h53.23.690939 +0530,
55,0,55,0,109.67865479999455,,109.64815109997289,10,109.67865479999455,109.67865479999455,0.021461299969814718,111.87925949995406,[0.475],[0.249375],[1],[0],[0],[2.2098379000090063],['target'],718461,001,2024-10-05_14h53.16.918,Visual.Search_priyanshiAU2220101,2024.1.5,None,2024-10-05 14h53.23.690939 +0530,
56,0,56,0,111.90969989995938,,111.88136979995761,10,111.90969989995938,111.90969989995938,0.01933919999282807,113.74513329996262,[0.255],[-0.263125],[1],[0],[0],[1.8443809000309557],['target'],718461,001,2024-10-05_14h53.16.918,Visual.Search_priyanshiAU2220101,2024.1.5,None,2024-10-05 14h53.23.690939 +0530,
57,0,57,0,113.77511639997829,,113.74736449995544,10,113.77511639997829,113.77511639997829,0.019465799967292696,115.41224369994598,[0.49375],[-0.215],[1],[0],[0],[1.6455378000391647],['target'],718461,001,2024-10-05_14h53.16.918,Visual.Search_priyanshiAU2220101,2024.1.5,None,2024-10-05 14h53.23.690939 +0530,
58,0,58,0,115.44269169995096,,115.41438009997364,10,115.44269169995096,115.44269169995096,0.019528499979060143,116.62844209995819,[0.304375],[0.15625],[1],[0],[0],[1.1945975000271574],['target'],718461,001,2024-10-05_14h53.16.918,Visual.Search_priyanshiAU2220101,2024.1.5,None,2024-10-05 14h53.23.690939 +0530,
59,0,59,0,116.65820109995548,,116.63059619994601,10,116.65820109995548,116.65820109995548,0.019283899979200214,118.29642899997998,[-0.176875],[0.04875],[1],[0],[0],[1.6465956999454647],['target'],718461,001,2024-10-05_14h53.16.918,Visual.Search_priyanshiAU2220101,2024.1.5,None,2024-10-05 14h53.23.690939 +0530,
60,0,60,0,118.32726829999592,,118.29862719995435,10,118.32726829999592,118.32726829999592,0.01968169998144731,120.51171709998744,[0.28625],[0.450625],[1],[0],[0],[2.1934710000059567],['target'],718461,001,2024-10-05_14h53.16.918,Visual.Search_priyanshiAU2220101,2024.1.5,None,2024-10-05 14h53.23.690939 +0530,
61,0,61,0,120.5308305999497,,120.5139592999476,5,120.5308305999497,120.5308305999497,0.01026160002220422,122.42850129998988,[0.403125],[-0.4175],[1],[0],[0],[1.9041685999836773],['target'],718461,001,2024-10-05_14h53.16.918,Visual.Search_priyanshiAU2220101,2024.1.5,None,2024-10-05 14h53.23.690939 +0530,
62,0,62,0,122.46005629998399,,122.43193899997277,10,122.46005629998399,122.46005629998399,0.019444899982772768,123.96283999999287,[0.056875],[-0.0475],[1],[0],[0],[1.5117985000251792],['target'],718461,001,2024-10-05_14h53.16.918,Visual.Search_priyanshiAU2220101,2024.1.5,None,2024-10-05 14h53.23.690939 +0530,
63,0,63,0,123.98067560000345,,123.96496159996605,5,123.98067560000345,123.98067560000345,0.010050099983345717,125.94644979998702,[-0.294375],[0.203125],[1],[0],[0],[1.9711669000098482],['target'],718461,001,2024-10-05_14h53.16.918,Visual.Search_priyanshiAU2220101,2024.1.5,None,2024-10-05 14h53.23.690939 +0530,
64,0,64,0,125.98724869999569,,125.95083220000379,10,125.98724869999569,125.98724869999569,0.025756399962119758,127.31150149996392,[-0.36375],[0.015625],[1],[0],[0],[1.3351735000032932],['target'],718461,001,2024-10-05_14h53.16.918,Visual.Search_priyanshiAU2220101,2024.1.5,None,2024-10-05 14h53.23.690939 +0530,
65,0,65,0,127.32945799996378,,127.31365089997416,5,127.32945799996378,127.32945799996378,0.00992959999712184,128.91207439999562,[-0.109375],[0.3175],[1],[0],[0],[1.5884747999953106],['target'],718461,001,2024-10-05_14h53.16.918,Visual.Search_priyanshiAU2220101,2024.1.5,None,2024-10-05 14h53.23.690939 +0530,
66,0,66,0,128.93344539997634,,128.91704519995255,5,128.93344539997634,128.93344539997634,0.011156900029163808,130.56150859995978,[0.2175],[-0.05625],[1],[0],[0],[1.633629500051029],['target'],718461,001,2024-10-05_14h53.16.918,Visual.Search_priyanshiAU2220101,2024.1.5,None,2024-10-05 14h53.23.690939 +0530,
67,0,67,0,130.58061199996155,,130.56455259997165,5,130.58061199996155,130.58061199996155,0.010068300005514175,131.91170349996537,[0.385625],[0.08125],[1],[0],[0],[1.3372322999639437],['target'],718461,001,2024-10-05_14h53.16.918,Visual.Search_priyanshiAU2220101,2024.1.5,None,2024-10-05 14h53.23.690939 +0530,
68,0,68,0,131.92950969998492,,131.91379609995056,5,131.92950969998492,131.92950969998492,0.009904999984428287,133.09446399996523,[0.25],[0.071875],[1],[0],[0],[1.1708265999914147],['target'],718461,001,2024-10-05_14h53.16.918,Visual.Search_priyanshiAU2220101,2024.1.5,None,2024-10-05 14h53.23.690939 +0530,
69,0,69,0,133.12527689995477,,133.0974026999902,10,133.12527689995477,133.12527689995477,0.01950509997550398,134.5281708999537,[-0.12875],[0.283125],[1],[0],[0],[1.4114674999727868],['target'],718461,001,2024-10-05_14h53.16.918,Visual.Search_priyanshiAU2220101,2024.1.5,None,2024-10-05 14h53.23.690939 +0530,
70,0,70,0,134.54748799995286,,134.53068529994925,5,134.54748799995286,134.54748799995286,0.010213500005193055,136.29492479999317,[0.12125],[-0.445625],[1],[0],[0],[1.75399469997501],['target'],718461,001,2024-10-05_14h53.16.918,Visual.Search_priyanshiAU2220101,2024.1.5,None,2024-10-05 14h53.23.690939 +0530,
71,0,71,0,136.32532809994882,,136.297047799977,10,136.32532809994882,136.32532809994882,0.019082399958278984,137.47822629997972,[0.349375],[0.370625],[1],[0],[0],[1.1621782000293024],['target'],718461,001,2024-10-05_14h53.16.918,Visual.Search_priyanshiAU2220101,2024.1.5,None,2024-10-05 14h53.23.690939 +0530,
72,0,72,0,137.50773509999271,,137.48034279997228,10,137.50773509999271,137.50773509999271,0.018902100040577352,138.66117049998138,[0.00375],[0.473125],[1],[0],[0],[1.1619323000195436],['target'],718461,001,2024-10-05_14h53.16.918,Visual.Search_priyanshiAU2220101,2024.1.5,None,2024-10-05 14h53.23.690939 +0530,
73,0,73,0,138.69084339996334,,138.66330559999915,10,138.69084339996334,138.69084339996334,0.019181500014383346,140.31164249998983,[-0.029375],[-0.013125],[1],[0],[0],[1.6291284000035375],['target'],718461,001,2024-10-05_14h53.16.918,Visual.Search_priyanshiAU2220101,2024.1.5,None,2024-10-05 14h53.23.690939 +0530,
74,0,74,0,140.32972999999765,,140.31379889999516,5,140.32972999999765,140.32972999999765,0.009858399978838861,141.8454844999942,[-0.18375],[0.04],[1],[0],[0],[1.5218581999652088],['target'],718461,001,2024-10-05_14h53.16.918,Visual.Search_priyanshiAU2220101,2024.1.5,None,2024-10-05 14h53.23.690939 +0530,
75,0,75,0,141.86363939999137,,141.84804479999002,5,141.86363939999137,141.86363939999137,0.009613300033379346,143.07855069998186,[-0.235625],[0.190625],[1],[0],[0],[1.2205887000309303],['target'],718461,001,2024-10-05_14h53.16.918,Visual.Search_priyanshiAU2220101,2024.1.5,None,2024-10-05 14h53.23.690939 +0530,
76,0,76,0,143.1088921999908,,143.080684799992,10,143.1088921999908,143.1088921999908,0.018831600027624518,144.84422179998364,[-0.484375],[-0.319375],[1],[0],[0],[1.7448162999935448],[],718461,001,2024-10-05_14h53.16.918,Visual.Search_priyanshiAU2220101,2024.1.5,None,2024-10-05 14h53.23.690939 +0530,
77,0,77,0,144.86229579994688,,144.8463392999838,5,144.86229579994688,144.86229579994688,0.009776699997019023,146.51102729997365,[0.02625],[0.400625],[1],[0],[0],[1.6549466999713331],['target'],718461,001,2024-10-05_14h53.16.918,Visual.Search_priyanshiAU2220101,2024.1.5,None,2024-10-05 14h53.23.690939 +0530,
78,0,78,0,146.54139329999452,,146.51316819997737,10,146.54139329999452,146.54139329999452,0.01904759998433292,147.7776205999544,[0.219375],[0.35375],[1],[0],[0],[1.2454834000091068],['target'],718461,001,2024-10-05_14h53.16.918,Visual.Search_priyanshiAU2220101,2024.1.5,None,2024-10-05 14h53.23.690939 +0530,
79,0,79,0,147.7954289999907,,147.7797212000005,5,147.7954289999907,147.7954289999907,0.009826399968005717,149.4446084999945,[0.470625],[0.188125],[1],[0],[0],[1.65505599998869],['target'],718461,001,2024-10-05_14h53.16.918,Visual.Search_priyanshiAU2220101,2024.1.5,None,2024-10-05 14h53.23.690939 +0530,
80,0,80,0,149.4641984999762,,149.4470668999711,5,149.4641984999762,149.4641984999762,0.011355399969033897,151.06229239999084,[-0.21375],[-0.4575],[1],[0],[0],[1.6038490000064485],['target'],718461,001,2024-10-05_14h53.16.918,Visual.Search_priyanshiAU2220101,2024.1.5,None,2024-10-05 14h53.23.690939 +0530,
81,0,81,0,151.08148729999084,,151.06522449996555,5,151.08148729999084,151.08148729999084,0.01048369996715337,152.46167920000153,[-0.1125],[-0.411875],[1],[0],[0],[1.3861502999789082],['target'],718461,001,2024-10-05_14h53.16.918,Visual.Search_priyanshiAU2220101,2024.1.5,None,2024-10-05 14h53.23.690939 +0530,
82,0,82,0,152.47970399999758,,152.46380249998765,5,152.47970399999758,152.47970399999758,0.009896899980958551,153.9282605999615,[-0.495],[-0.435625],[1],[0],[0],[1.4546717000193894],['target'],718461,001,2024-10-05_14h53.16.918,Visual.Search_priyanshiAU2220101,2024.1.5,None,2024-10-05 14h53.23.690939 +0530,
83,0,83,0,153.95806679996895,,153.93036909995135,10,153.95806679996895,153.95806679996895,0.018809399974998087,156.56152609997662,[0.3275],[0.4475],[1],[0],[0],[2.612448300002143],['target'],718461,001,2024-10-05_14h53.16.918,Visual.Search_priyanshiAU2220101,2024.1.5,None,2024-10-05 14h53.23.690939 +0530,
84,0,84,0,156.5796158000012,,156.56366779998643,5,156.5796158000012,156.5796158000012,0.010014800005592406,158.2439897999866,[0.2825],[-0.186875],[1],[0],[0],[1.6703574000275694],['target'],718461,001,2024-10-05_14h53.16.918,Visual.Search_priyanshiAU2220101,2024.1.5,None,2024-10-05 14h53.23.690939 +0530,
85,0,85,0,158.26187539997045,,158.24631719995523,5,158.26187539997045,158.26187539997045,0.009774599981028587,160.17763199994806,[0.26875],[0.445625],[1],[0],[0],[1.9215569000225514],['target'],718461,001,2024-10-05_14h53.16.918,Visual.Search_priyanshiAU2220101,2024.1.5,None,2024-10-05 14h53.23.690939 +0530,
86,0,86,0,160.19635639997432,,160.179891399981,5,160.19635639997432,160.19635639997432,0.010306800017133355,162.37717989995144,[-0.33375],[-0.449375],[1],[0],[0],[2.1869854000397027],['target'],718461,001,2024-10-05_14h53.16.918,Visual.Search_priyanshiAU2220101,2024.1.5,None,2024-10-05 14h53.23.690939 +0530,
87,0,87,0,162.4074866999872,,162.37930109997978,10,162.4074866999872,162.4074866999872,0.01949370000511408,164.09381509997183,[-0.039375],[-0.17625],[1],[0],[0],[1.6950017999624833],['target'],718461,001,2024-10-05_14h53.16.918,Visual.Search_priyanshiAU2220101,2024.1.5,None,2024-10-05 14h53.23.690939 +0530,
88,0,88,0,164.12417869997444,,164.09596249996684,10,164.12417869997444,164.12417869997444,0.018846899969503284,165.74376609997125,[0.3225],[-0.07125],[1],[0],[0],[1.6290335999801755],['target'],718461,001,2024-10-05_14h53.16.918,Visual.Search_priyanshiAU2220101,2024.1.5,None,2024-10-05 14h53.23.690939 +0530,
89,0,89,0,165.7753688999801,,165.74589239998022,10,165.7753688999801,165.7753688999801,0.020914599997922778,167.4110205999459,[0.403125],[-0.305],[1],[0],[0],[1.6442652000114322],['target'],718461,001,2024-10-05_14h53.16.918,Visual.Search_priyanshiAU2220101,2024.1.5,None,2024-10-05 14h53.23.690939 +0530,
90,0,90,0,167.44131449999986,,167.413170899963,10,167.44131449999986,167.44131449999986,0.019077600038144737,168.89361489994917,[-0.031875],[-0.37625],[1],[0],[0],[1.4613918000250123],['target'],718461,001,2024-10-05_14h53.16.918,Visual.Search_priyanshiAU2220101,2024.1.5,None,2024-10-05 14h53.23.690939 +0530,
91,0,91,0,168.9138557999977,,168.896168999956,5,168.9138557999977,168.9138557999977,0.011633899994194508,170.67820429999847,[-0.45375],[0.3725],[1],[0],[0],[1.7704736999585293],['target'],718461,001,2024-10-05_14h53.16.918,Visual.Search_priyanshiAU2220101,2024.1.5,None,2024-10-05 14h53.23.690939 +0530,
92,0,92,0,170.7115410999977,,170.68124999996508,10,170.7115410999977,170.7115410999977,0.021703700011130422,171.91026419994887,[-0.38375],[0.476875],[1],[0],[0],[1.2076579999993555],['target'],718461,001,2024-10-05_14h53.16.918,Visual.Search_priyanshiAU2220101,2024.1.5,None,2024-10-05 14h53.23.690939 +0530,
93,0,93,0,171.94023649999872,,171.9124050999526,10,171.94023649999872,171.94023649999872,0.01918970001861453,173.6434917000006,[-0.26375],[0.11375],[1],[0],[0],[1.7119235999998637],['target'],718461,001,2024-10-05_14h53.16.918,Visual.Search_priyanshiAU2220101,2024.1.5,None,2024-10-05 14h53.23.690939 +0530,
94,0,94,0,173.66162779997103,,173.64563139999518,5,173.66162779997103,173.66162779997103,0.009788300027139485,175.51127469999483,[0.430625],[-0.34],[1],[0],[0],[1.8557717999792658],['target'],718461,001,2024-10-05_14h53.16.918,Visual.Search_priyanshiAU2220101,2024.1.5,None,2024-10-05 14h53.23.690939 +0530,
95,0,95,0,175.54458789998898,,175.51371809997363,10,175.54458789998898,175.54458789998898,0.021488600003067404,177.17766559997108,[0.370625],[0.065],[1],[0],[0],[1.642526799987536],['target'],718461,001,2024-10-05_14h53.16.918,Visual.Search_priyanshiAU2220101,2024.1.5,None,2024-10-05 14h53.23.690939 +0530,
96,0,96,0,177.19660339999245,,177.1799893999705,5,177.19660339999245,177.19660339999245,0.010300600028131157,179.11014219996287,[-0.193125],[0.43375],[1],[0],[0],[1.9198054000153206],['target'],718461,001,2024-10-05_14h53.16.918,Visual.Search_priyanshiAU2220101,2024.1.5,None,2024-10-05 14h53.23.690939 +0530,
97,0,97,0,179.12821789999725,,179.1122475999873,5,179.12821789999725,179.12821789999725,0.009742800029926002,181.29354949999833,[0.436875],[-0.419375],[1],[0],[0],[2.1714893999742344],['target'],718461,001,2024-10-05_14h53.16.918,Visual.Search_priyanshiAU2220101,2024.1.5,None,2024-10-05 14h53.23.690939 +0530,
98,0,98,0,181.31187609996414,,181.2957776999683,5,181.31187609996414,181.31187609996414,0.00992369995219633,182.8282395999995,[-0.276875],[0.283125],[1],[0],[0],[1.5224183999816887],['target'],718461,001,2024-10-05_14h53.16.918,Visual.Search_priyanshiAU2220101,2024.1.5,None,2024-10-05 14h53.23.690939 +0530,
99,0,99,0,182.84741879999638,,182.8312128999969,5,182.84741879999638,182.84741879999638,0.010327900003176183,184.62663879996398,[0.245625],[0.4225],[1],[0],[0],[1.7851771999849007],['target'],718461,001,2024-10-05_14h53.16.918,Visual.Search_priyanshiAU2220101,2024.1.5,None,2024-10-05 14h53.23.690939 +0530,
100,0,100,0,184.6583947999752,,184.62927999999374,10,184.6583947999752,184.6583947999752,0.020101899979636073,186.05972859996837,[0.3425],[0.026875],[1],[0],[0],[1.4105054999818094],[],718461,001,2024-10-05_14h53.16.918,Visual.Search_priyanshiAU2220101,2024.1.5,None,2024-10-05 14h53.23.690939 +0530,
101,0,101,0,186.07735999999568,,186.06184709997615,5,186.07735999999568,186.07735999999568,0.009779300016816705,187.82692569994833,[0.045],[0.486875],[1],[0],[0],[1.7552735999925062],['target'],718461,001,2024-10-05_14h53.16.918,Visual.Search_priyanshiAU2220101,2024.1.5,None,2024-10-05 14h53.23.690939 +0530,
102,0,102,0,187.84441429999424,,187.82906199997524,5,187.84441429999424,187.84441429999424,0.009761900000739843,189.44357429997763,[0.185],[-0.411875],[1],[0],[0],[1.6048123000073247],['target'],718461,001,2024-10-05_14h53.16.918,Visual.Search_priyanshiAU2220101,2024.1.5,None,2024-10-05 14h53.23.690939 +0530,
103,0,103,0,189.46118009998463,,189.44567249994725,5,189.46118009998463,189.46118009998463,0.009862000006251037,190.89303799998015,[0.371875],[-0.33],[1],[0],[0],[1.4375575999729335],['target'],718461,001,2024-10-05_14h53.16.918,Visual.Search_priyanshiAU2220101,2024.1.5,None,2024-10-05 14h53.23.690939 +0530,
104,0,104,0,190.91098089999286,,190.89513269998133,5,190.91098089999286,190.91098089999286,0.009715099993627518,192.62654430000111,[0.475625],[0.2225],[1],[0],[0],[1.7217379999929108],['target'],718461,001,2024-10-05_14h53.16.918,Visual.Search_priyanshiAU2220101,2024.1.5,None,2024-10-05 14h53.23.690939 +0530,
105,0,105,0,192.65626969997538,,192.62878739996813,10,192.65626969997538,192.65626969997538,0.019139899988658726,194.0102193999919,[-0.37875],[-0.241875],[1],[0],[0],[1.362440400000196],[],718461,001,2024-10-05_14h53.16.918,Visual.Search_priyanshiAU2220101,2024.1.5,None,2024-10-05 14h53.23.690939 +0530,
106,0,106,0,194.02799169998616,,194.01234389998717,5,194.02799169998616,194.02799169998616,0.009806299989577383,195.5110007999465,[0.015],[-0.13625],[1],[0],[0],[1.4888242000015453],['target'],718461,001,2024-10-05_14h53.16.918,Visual.Search_priyanshiAU2220101,2024.1.5,None,2024-10-05 14h53.23.690939 +0530,
107,0,107,0,195.5290182000026,,195.5135054999846,5,195.5290182000026,195.5290182000026,0.00968529999954626,197.04310009995243,[0.35375],[0.39125],[1],[0],[0],[1.5198332999716513],['target'],718461,001,2024-10-05_14h53.16.918,Visual.Search_priyanshiAU2220101,2024.1.5,None,2024-10-05 14h53.23.690939 +0530,
108,0,108,0,197.0755495999474,,197.04571519995807,10,197.0755495999474,197.0755495999474,0.02042549999896437,198.59268289996544,[-0.07],[0.37875],[1],[0],[0],[1.5267184000113048],['target'],718461,001,2024-10-05_14h53.16.918,Visual.Search_priyanshiAU2220101,2024.1.5,None,2024-10-05 14h53.23.690939 +0530,
109,0,109,0,198.62288089998765,,198.59480619995156,10,198.62288089998765,198.62288089998765,0.018914600019343197,199.97731759998715,[-0.095],[-0.064375],[1],[0],[0],[1.3635728000081144],['target'],718461,001,2024-10-05_14h53.16.918,Visual.Search_priyanshiAU2220101,2024.1.5,None,2024-10-05 14h53.23.690939 +0530,
110,0,110,0,199.99551889998838,,199.9794441999984,5,199.99551889998838,199.99551889998838,0.00995640002656728,201.4101600999711,[-0.080625],[0.030625],[1],[0],[0],[1.4206009000190534],['target'],718461,001,2024-10-05_14h53.16.918,Visual.Search_priyanshiAU2220101,2024.1.5,None,2024-10-05 14h53.23.690939 +0530,
111,0,111,0,201.44700519996695,,201.41326969995862,10,201.44700519996695,201.44700519996695,0.02414739999221638,203.3422107999795,[0.011875],[-0.07875],[1],[0],[0],[1.9048717999830842],['target'],718461,001,2024-10-05_14h53.16.918,Visual.Search_priyanshiAU2220101,2024.1.5,None,2024-10-05 14h53.23.690939 +0530,
112,0,112,0,203.3716455999529,,203.34437059995253,10,203.3716455999529,203.3716455999529,0.019231999991461635,205.1921500999597,[0.4575],[-0.051875],[1],[0],[0],[1.8285335999680683],['target'],718461,001,2024-10-05_14h53.16.918,Visual.Search_priyanshiAU2220101,2024.1.5,None,2024-10-05 14h53.23.690939 +0530,
113,0,113,0,205.22242609999375,,205.19433239998762,10,205.22242609999375,205.22242609999375,0.019306299975141883,207.1920905999723,[-0.1525],[0.315625],[1],[0],[0],[1.9785450999625027],['target'],718461,001,2024-10-05_14h53.16.918,Visual.Search_priyanshiAU2220101,2024.1.5,None,2024-10-05 14h53.23.690939 +0530,
114,0,114,0,207.22325169999385,,207.1951168999658,10,207.22325169999385,207.22325169999385,0.02003259997582063,208.74255599995377,[-0.48125],[-0.255625],[1],[0],[0],[1.5276911000255495],['target'],718461,001,2024-10-05_14h53.16.918,Visual.Search_priyanshiAU2220101,2024.1.5,None,2024-10-05 14h53.23.690939 +0530,
115,0,115,0,208.77220899995882,,208.74471619998803,10,208.77220899995882,208.77220899995882,0.01899700000649318,210.4594355999725,[-0.47125],[0.4],[1],[0],[0],[1.695803500013426],['target'],718461,001,2024-10-05_14h53.16.918,Visual.Search_priyanshiAU2220101,2024.1.5,None,2024-10-05 14h53.23.690939 +0530,
116,0,116,0,210.4889629999525,,210.46156889997656,10,210.4889629999525,210.4889629999525,0.019106400024611503,211.75932149996515,[-0.279375],[0.23375],[1],[0],[0],[1.2787221999606118],['target'],718461,001,2024-10-05_14h53.16.918,Visual.Search_priyanshiAU2220101,2024.1.5,None,2024-10-05 14h53.23.690939 +0530,
117,0,117,0,211.7768712999532,,211.76145579997683,5,211.7768712999532,211.7768712999532,0.009791600052267313,213.24234989995603,[0.190625],[0.03625],[1],[0],[0],[1.4711772999726236],['target'],718461,001,2024-10-05_14h53.16.918,Visual.Search_priyanshiAU2220101,2024.1.5,None,2024-10-05 14h53.23.690939 +0530,
118,0,118,0,213.27303819998633,,213.2447441999684,10,213.27303819998633,213.27303819998633,0.01939709996804595,215.10914409998804,[-0.354375],[-0.306875],[1],[0],[0],[1.844970199977979],['target'],718461,001,2024-10-05_14h53.16.918,Visual.Search_priyanshiAU2220101,2024.1.5,None,2024-10-05 14h53.23.690939 +0530,
119,0,119,0,215.13928029994713,,215.11130569997476,10,215.13928029994713,215.13928029994713,0.01930370001355186,219.11032109998632,[0.0225],[0.15625],[1],[0],[0],[3.9798424000036903],[],718461,001,2024-10-05_14h53.16.918,Visual.Search_priyanshiAU2220101,2024.1.5,None,2024-10-05 14h53.23.690939 +0530,
120,0,120,0,219.1276001999504,,219.1124224999803,5,219.1276001999504,219.1276001999504,0.009634399961214513,220.64283949998207,[0.455],[0.068125],[1],[0],[0],[1.5207822999800555],['target'],718461,001,2024-10-05_14h53.16.918,Visual.Search_priyanshiAU2220101,2024.1.5,None,2024-10-05 14h53.23.690939 +0530,
121,0,121,0,220.6630363999866,,220.64607329998398,5,220.6630363999866,220.6630363999866,0.011030199995730072,222.72715150000295,[0.198125],[-0.4775],[1],[0],[0],[2.0700509000453167],['target'],718461,001,2024-10-05_14h53.16.918,Visual.Search_priyanshiAU2220101,2024.1.5,None,2024-10-05 14h53.23.690939 +0530,
122,0,122,0,222.758776499948,,222.73042119998718,10,222.758776499948,222.758776499948,0.019311499956529588,225.24310139997397,[-0.14375],[0.220625],[1],[0],[0],[2.493745299987495],['target'],718461,001,2024-10-05_14h53.16.918,Visual.Search_priyanshiAU2220101,2024.1.5,None,2024-10-05 14h53.23.690939 +0530,
123,0,123,0,225.260669899988,,225.24523869995028,5,225.260669899988,225.260669899988,0.009788500028662384,226.95963800000027,[0.393125],[0.32875],[1],[0],[0],[1.7046766999992542],['target'],718461,001,2024-10-05_14h53.16.918,Visual.Search_priyanshiAU2220101,2024.1.5,None,2024-10-05 14h53.23.690939 +0530,
124,0,124,0,226.99302969995188,,226.9622437999933,10,226.99302969995188,226.99302969995188,0.021460200019646436,228.42666909995023,[-0.125625],[0.224375],[1],[0],[0],[1.4431205000146292],['target'],718461,001,2024-10-05_14h53.16.918,Visual.Search_priyanshiAU2220101,2024.1.5,None,2024-10-05 14h53.23.690939 +0530,
125,0,125,0,228.44561090000207,,228.4289888999774,5,228.44561090000207,228.44561090000207,0.01047939999261871,230.09312169998884,[-0.485625],[0.224375],[1],[0],[0],[1.6536399000324309],['target'],718461,001,2024-10-05_14h53.16.918,Visual.Search_priyanshiAU2220101,2024.1.5,None,2024-10-05 14h53.23.690939 +0530,
126,0,126,0,230.12499280000338,,230.0963788999943,10,230.12499280000338,230.12499280000338,0.01962380000622943,231.84320779994596,[0.19125],[0.391875],[1],[0],[0],[1.7275352999567986],['target'],718461,001,2024-10-05_14h53.16.918,Visual.Search_priyanshiAU2220101,2024.1.5,None,2024-10-05 14h53.23.690939 +0530,
127,0,127,0,231.8636669999687,,231.84655269997893,5,231.8636669999687,231.8636669999687,0.0115904999547638,234.57617969997227,[0.21125],[0.081875],[1],[0],[0],[2.7181107999640517],[],718461,001,2024-10-05_14h53.16.918,Visual.Search_priyanshiAU2220101,2024.1.5,None,2024-10-05 14h53.23.690939 +0530,
128,0,128,0,234.60804809996625,,234.57956679997733,10,234.60804809996625,234.60804809996625,0.019990200002212077,236.54184099996928,[-0.0175],[-0.359375],[1],[0],[0],[1.942619699984789],['target'],718461,001,2024-10-05_14h53.16.918,Visual.Search_priyanshiAU2220101,2024.1.5,None,2024-10-05 14h53.23.690939 +0530,
129,0,129,0,236.57193259999622,,236.54419939999934,10,236.57193259999622,236.57193259999622,0.018774199998006225,237.90979409997817,[0.430625],[0.01625],[1],[0],[0],[1.346861700003501],['target'],718461,001,2024-10-05_14h53.16.918,Visual.Search_priyanshiAU2220101,2024.1.5,None,2024-10-05 14h53.23.690939 +0530,
130,0,130,0,237.93030049995286,,237.91245199996047,5,237.93030049995286,237.93030049995286,0.011021999991498888,239.55969779996667,[0.025],[0.110625],[1],[0],[0],[1.636419599992223],['target'],718461,001,2024-10-05_14h53.16.918,Visual.Search_priyanshiAU2220101,2024.1.5,None,2024-10-05 14h53.23.690939 +0530,
131,0,131,0,239.57767329999479,,239.5619020999875,5,239.57767329999479,239.57767329999479,0.009787699964363128,240.9255853999639,[-0.33125],[0.465],[1],[0],[0],[1.3539019000018016],['target'],718461,001,2024-10-05_14h53.16.918,Visual.Search_priyanshiAU2220101,2024.1.5,None,2024-10-05 14h53.23.690939 +0530,
132,0,132,0,240.94383829995058,,240.92774889996508,5,240.94383829995058,240.94383829995058,0.010006900003645569,242.725498099986,[-0.388125],[-0.165],[1],[0],[0],[1.7877882000175305],['target'],718461,001,2024-10-05_14h53.16.918,Visual.Search_priyanshiAU2220101,2024.1.5,None,2024-10-05 14h53.23.690939 +0530,
133,0,133,0,242.7446388999815,,242.72818679997,5,242.7446388999815,242.7446388999815,0.010992800001986325,243.95856199995615,[-0.12125],[0.155625],[1],[0],[0],[1.2193556999554858],['target'],718461,001,2024-10-05_14h53.16.918,Visual.Search_priyanshiAU2220101,2024.1.5,None,2024-10-05 14h53.23.690939 +0530,
134,0,134,0,243.9899846999906,,243.961811999965,10,243.9899846999906,243.9899846999906,0.01985069998772815,245.19264959997963,[-0.18375],[0.140625],[1],[0],[0],[1.2113015999784693],['target'],718461,001,2024-10-05_14h53.16.918,Visual.Search_priyanshiAU2220101,2024.1.5,None,2024-10-05 14h53.23.690939 +0530,
135,0,135,0,245.22466669999994,,245.19502549996832,10,245.22466669999994,245.22466669999994,0.02039269998203963,247.14147919998504,[0.40375],[-0.22125],[1],[0],[0],[1.9261413000058383],['target'],718461,001,2024-10-05_14h53.16.918,Visual.Search_priyanshiAU2220101,2024.1.5,None,2024-10-05 14h53.23.690939 +0530,
136,0,136,0,247.15920019999612,,247.1436952999793,5,247.15920019999612,247.15920019999612,0.0097354999743402,248.74160660000052,[-0.34625],[0.43125],[1],[0],[0],[1.588129999989178],['target'],718461,001,2024-10-05_14h53.16.918,Visual.Search_priyanshiAU2220101,2024.1.5,None,2024-10-05 14h53.23.690939 +0530,
137,0,137,0,248.7721740999841,,248.74453219998395,10,248.7721740999841,248.7721740999841,0.018860000011045486,250.408153700002,[-0.03125],[0.0325],[1],[0],[0],[1.6448835000046529],['target'],718461,001,2024-10-05_14h53.16.918,Visual.Search_priyanshiAU2220101,2024.1.5,None,2024-10-05 14h53.23.690939 +0530,
138,0,138,0,250.43721349997213,,250.41031979996478,10,250.43721349997213,250.43721349997213,0.018732600030489266,252.1084391999757,[-0.178125],[0.47625],[1],[0],[0],[1.6793862000340596],['target'],718461,001,2024-10-05_14h53.16.918,Visual.Search_priyanshiAU2220101,2024.1.5,None,2024-10-05 14h53.23.690939 +0530,
139,0,139,0,252.12590349995298,,252.11056839994853,5,252.12590349995298,252.12590349995298,0.009779600019101053,253.241935500002,[-0.31625],[0.439375],[1],[0],[0],[1.1216398000251502],['target'],718461,001,2024-10-05_14h53.16.918,Visual.Search_priyanshiAU2220101,2024.1.5,None,2024-10-05 14h53.23.690939 +0530,
140,0,140,0,253.27227409998886,,253.2440717999707,10,253.27227409998886,253.27227409998886,0.01917630003299564,254.82591979997233,[0.25625],[-0.11625],[1],[0],[0],[1.5627760000061244],['target'],718461,001,2024-10-05_14h53.16.918,Visual.Search_priyanshiAU2220101,2024.1.5,None,2024-10-05 14h53.23.690939 +0530,
141,0,141,0,254.843882999965,,254.82807379995938,5,254.843882999965,254.843882999965,0.00976230000378564,256.09141799999634,[0.0275],[0.2575],[1],[0],[0],[1.253549099958036],['target'],718461,001,2024-10-05_14h53.16.918,Visual.Search_priyanshiAU2220101,2024.1.5,None,2024-10-05 14h53.23.690939 +0530,
142,0,142,0,256.12199349998264,,256.0943480999558,10,256.12199349998264,256.12199349998264,0.01914839999517426,257.47542009997414,[-0.01875],[0.09125],[1],[0],[0],[1.3620719999889843],['target'],718461,001,2024-10-05_14h53.16.918,Visual.Search_priyanshiAU2220101,2024.1.5,None,2024-10-05 14h53.23.690939 +0530,
143,0,143,0,257.49369129998377,,257.47754809999606,5,257.49369129998377,257.49369129998377,0.009739400004036725,259.0587320999475,[0.378125],[-0.155625],[1],[0],[0],[1.5715202999999747],['target'],718461,001,2024-10-05_14h53.16.918,Visual.Search_priyanshiAU2220101,2024.1.5,None,2024-10-05 14h53.23.690939 +0530,
144,0,144,0,259.08824620000087,,259.0608935999917,10,259.08824620000087,259.08824620000087,0.018932299979496747,260.50767569994787,[-0.069375],[0.1575],[1],[0],[0],[1.4279897000524215],['target'],718461,001,2024-10-05_14h53.16.918,Visual.Search_priyanshiAU2220101,2024.1.5,None,2024-10-05 14h53.23.690939 +0530,
145,0,145,0,260.52548099996056,,260.50980999995954,5,260.52548099996056,260.52548099996056,0.009836699988227338,262.14247269998305,[-0.320625],[-0.190625],[1],[0],[0],[1.6227107000304386],['target'],718461,001,2024-10-05_14h53.16.918,Visual.Search_priyanshiAU2220101,2024.1.5,None,2024-10-05 14h53.23.690939 +0530,
146,0,146,0,262.17357469996205,,262.1449505999917,10,262.17357469996205,262.17357469996205,0.019963900034781545,263.85829109995393,[0.04625],[-0.12625],[1],[0],[0],[1.6934053999721073],['target'],718461,001,2024-10-05_14h53.16.918,Visual.Search_priyanshiAU2220101,2024.1.5,None,2024-10-05 14h53.23.690939 +0530,
147,0,147,0,263.88785389997065,,263.86047580000013,10,263.88785389997065,263.88785389997065,0.018747300026006997,265.7244113999768,[-0.26625],[0.3075],[1],[0],[0],[1.8452785999979824],['target'],718461,001,2024-10-05_14h53.16.918,Visual.Search_priyanshiAU2220101,2024.1.5,None,2024-10-05 14h53.23.690939 +0530,
148,0,148,0,265.755185899965,,265.7270354999928,10,265.755185899965,265.755185899965,0.018787699984386563,267.4409495999571,[-0.06125],[0.130625],[1],[0],[0],[1.6953407999826595],['target'],718461,001,2024-10-05_14h53.16.918,Visual.Search_priyanshiAU2220101,2024.1.5,None,2024-10-05 14h53.23.690939 +0530,
149,0,149,0,267.4715403000009,,267.4432173999958,10,267.4715403000009,267.4715403000009,0.019452700042165816,268.9583882999723,[-0.034375],[0.005625],[1],[0],[0],[1.495773200003896],['target'],718461,001,2024-10-05_14h53.16.918,Visual.Search_priyanshiAU2220101,2024.1.5,None,2024-10-05 14h53.23.690939 +0530,
150,0,150,0,268.97605679999106,,268.9606598999817,5,268.97605679999106,268.97605679999106,0.009679800015874207,270.4088627999881,[-0.28],[-0.149375],[1],[0],[0],[1.4385758000425994],['target'],718461,001,2024-10-05_14h53.16.918,Visual.Search_priyanshiAU2220101,2024.1.5,None,2024-10-05 14h53.23.690939 +0530,
151,0,151,0,270.4286933999974,,270.41123499994865,5,270.4286933999974,270.4286933999974,0.01092680002329871,271.77419649995863,[0.033125],[0.424375],[1],[0],[0],[1.3521277999971062],['target'],718461,001,2024-10-05_14h53.16.918,Visual.Search_priyanshiAU2220101,2024.1.5,None,2024-10-05 14h53.23.690939 +0530,
152,0,152,0,271.8042817999958,,271.7763542999746,10,271.8042817999958,271.8042817999958,0.01894670003093779,273.04180819995236,[0.07625],[0.26],[1],[0],[0],[1.2465904999990016],['target'],718461,001,2024-10-05_14h53.16.918,Visual.Search_priyanshiAU2220101,2024.1.5,None,2024-10-05 14h53.23.690939 +0530,
153,0,153,0,273.0716748999548,,273.0439608999877,10,273.0716748999548,273.0716748999548,0.01910959999077022,274.60818749998,[0.37625],[0.10125],[1],[0],[0],[1.5451135999755934],['target'],718461,001,2024-10-05_14h53.16.918,Visual.Search_priyanshiAU2220101,2024.1.5,None,2024-10-05 14h53.23.690939 +0530,
154,0,154,0,274.62832039996283,,274.6106189999846,5,274.62832039996283,274.62832039996283,0.011437000008299947,276.77484739996726,[0.394375],[0.055],[1],[0],[0],[2.1529038000153378],['target'],718461,001,2024-10-05_14h53.16.918,Visual.Search_priyanshiAU2220101,2024.1.5,None,2024-10-05 14h53.23.690939 +0530,
155,0,155,0,276.8107923999778,,276.7788913999684,10,276.8107923999778,276.8107923999778,0.022772700001951307,278.1078354999772,[-0.16],[-0.285625],[1],[0],[0],[1.3064725000294857],['target'],718461,001,2024-10-05_14h53.16.918,Visual.Search_priyanshiAU2220101,2024.1.5,None,2024-10-05 14h53.23.690939 +0530,
156,0,156,0,278.1380752999685,,278.1099847999867,10,278.1380752999685,278.1380752999685,0.019324099994264543,279.3574389999849,[0.16875],[0.31375],[1],[0],[0],[1.2281606000033207],['target'],718461,001,2024-10-05_14h53.16.918,Visual.Search_priyanshiAU2220101,2024.1.5,None,2024-10-05 14h53.23.690939 +0530,
157,0,157,0,279.38830999995116,,279.36006749997614,10,279.38830999995116,279.38830999995116,0.0197825999930501,281.15733909996925,[0.483125],[0.335625],[1],[0],[0],[1.7776552999857813],['target'],718461,001,2024-10-05_14h53.16.918,Visual.Search_priyanshiAU2220101,2024.1.5,None,2024-10-05 14h53.23.690939 +0530,
158,0,158,0,281.1872262999532,,281.15976129996125,10,281.1872262999532,281.1872262999532,0.019246400042902678,283.3907018000027,[-0.240625],[-0.394375],[1],[0],[0],[2.2118325000046752],['target'],718461,001,2024-10-05_14h53.16.918,Visual.Search_priyanshiAU2220101,2024.1.5,None,2024-10-05 14h53.23.690939 +0530,
159,0,159,0,283.42172399995616,,283.3929892999586,10,283.42172399995616,283.42172399995616,0.019890099996700883,285.0570537999738,[0.025625],[0.114375],[1],[0],[0],[1.6442800000077114],['target'],718461,001,2024-10-05_14h53.16.918,Visual.Search_priyanshiAU2220101,2024.1.5,None,2024-10-05 14h53.23.690939 +0530,
160,0,160,0,285.0861967999954,,285.05919489997905,10,285.0861967999954,285.0861967999954,0.01849360001506284,286.62418569996953,[-0.214375],[0.008125],[1],[0],[0],[1.5464094000053592],['target'],718461,001,2024-10-05_14h53.16.918,Visual.Search_priyanshiAU2220101,2024.1.5,None,2024-10-05 14h53.23.690939 +0530,
161,0,161,0,286.6428339999984,,286.6267866999842,5,286.6428339999984,286.6428339999984,0.010001200018450618,288.30736259999685,[-0.210625],[0.296875],[1],[0],[0],[1.6706064000027254],['target'],718461,001,2024-10-05_14h53.16.918,Visual.Search_priyanshiAU2220101,2024.1.5,None,2024-10-05 14h53.23.690939 +0530,
162,0,162,0,288.32611639995594,,288.30964579997817,5,288.32611639995594,288.32611639995594,0.010546399978920817,289.5742898999597,[-0.168125],[0.424375],[1],[0],[0],[1.254233599989675],['target'],718461,001,2024-10-05_14h53.16.918,Visual.Search_priyanshiAU2220101,2024.1.5,None,2024-10-05 14h53.23.690939 +0530,
163,0,163,0,289.60326009994606,,289.5764033999876,10,289.60326009994606,289.60326009994606,0.01853950001532212,292.20709219999844,[-0.160625],[-0.2325],[1],[0],[0],[2.6121992000262253],['target'],718461,001,2024-10-05_14h53.16.918,Visual.Search_priyanshiAU2220101,2024.1.5,None,2024-10-05 14h53.23.690939 +0530,
164,0,164,0,292.2250995999784,,292.20921549998457,5,292.2250995999784,292.2250995999784,0.009530299983453006,294.20720499998424,[0.414375],[-0.401875],[1],[0],[0],[1.988505199959036],['target'],718461,001,2024-10-05_14h53.16.918,Visual.Search_priyanshiAU2220101,2024.1.5,None,2024-10-05 14h53.23.690939 +0530,
165,0,165,0,294.23830229998566,,294.2094598999829,10,294.23830229998566,294.23830229998566,0.019788900041021407,296.34091519995127,[-0.378125],[-0.389375],[1],[0],[0],[2.111670700018294],['target'],718461,001,2024-10-05_14h53.16.918,Visual.Search_priyanshiAU2220101,2024.1.5,None,2024-10-05 14h53.23.690939 +0530,
166,0,166,0,296.37030680000316,,296.34311419998994,10,296.37030680000316,296.37030680000316,0.01904019998619333,297.90692359994864,[-0.15125],[0.433125],[1],[0],[0],[1.5447809000033885],['target'],718461,001,2024-10-05_14h53.16.918,Visual.Search_priyanshiAU2220101,2024.1.5,None,2024-10-05 14h53.23.690939 +0530,
167,0,167,0,297.93626989994664,,297.9090517999721,10,297.93626989994664,297.93626989994664,0.018801200028974563,299.7405285999994,[-0.010625],[-0.193125],[1],[0],[0],[1.8127818999928422],['target'],718461,001,2024-10-05_14h53.16.918,Visual.Search_priyanshiAU2220101,2024.1.5,None,2024-10-05 14h53.23.690939 +0530,
168,0,168,0,299.76022779999766,,299.7429271999863,5,299.76022779999766,299.76022779999766,0.011142399976961315,301.27468539995607,[0.063125],[-0.126875],[1],[0],[0],[1.5207994999946095],['target'],718461,001,2024-10-05_14h53.16.918,Visual.Search_priyanshiAU2220101,2024.1.5,None,2024-10-05 14h53.23.690939 +0530,
169,0,169,0,301.3045546999783,,301.2767934000003,10,301.3045546999783,301.3045546999783,0.019209899997804314,303.1908635,[-0.00125],[0.043125],[1],[0],[0],[1.8950038999901153],['target'],718461,001,2024-10-05_14h53.16.918,Visual.Search_priyanshiAU2220101,2024.1.5,None,2024-10-05 14h53.23.690939 +0530,
170,0,170,0,303.22109049995197,,303.1930117000011,10,303.22109049995197,303.22109049995197,0.018873299995902926,305.17326399998274,[0.365625],[0.246875],[1],[0],[0],[1.961523100035265],['target'],718461,001,2024-10-05_14h53.16.918,Visual.Search_priyanshiAU2220101,2024.1.5,None,2024-10-05 14h53.23.690939 +0530,
171,0,171,0,305.1925626999582,,305.17594019998796,5,305.1925626999582,305.1925626999582,0.011039800010621548,306.47372929996345,[0.194375],[0.105],[1],[0],[0],[1.2867380999960005],['target'],718461,001,2024-10-05_14h53.16.918,Visual.Search_priyanshiAU2220101,2024.1.5,None,2024-10-05 14h53.23.690939 +0530,
172,0,172,0,306.491021099966,,306.475781199988,5,306.491021099966,306.491021099966,0.009669599996414036,308.35669829999097,[-0.48625],[0.386875],[1],[0],[0],[1.871287099958863],['target'],718461,001,2024-10-05_14h53.16.918,Visual.Search_priyanshiAU2220101,2024.1.5,None,2024-10-05 14h53.23.690939 +0530,
173,0,173,0,308.38739209994674,,308.35888279997744,10,308.38739209994674,308.38739209994674,0.01906249998137355,310.85687089996645,[0.49375],[0.06],[1],[0],[0],[2.478975400037598],['target'],718461,001,2024-10-05_14h53.16.918,Visual.Search_priyanshiAU2220101,2024.1.5,None,2024-10-05 14h53.23.690939 +0530,
174,0,174,0,310.8758084999863,,310.85949799994705,5,310.8758084999863,310.8758084999863,0.010136199998669326,312.24104139994597,[-0.07],[0.14625],[1],[0],[0],[1.3714907999965362],['target'],718461,001,2024-10-05_14h53.16.918,Visual.Search_priyanshiAU2220101,2024.1.5,None,2024-10-05 14h53.23.690939 +0530,
175,0,175,0,312.2709948999691,,312.2431561999838,10,312.2709948999691,312.2709948999691,0.018648600031156093,313.97467649995815,[0.0475],[-0.45375],[1],[0],[0],[1.712974399968516],['target'],718461,001,2024-10-05_14h53.16.918,Visual.Search_priyanshiAU2220101,2024.1.5,None,2024-10-05 14h53.23.690939 +0530,
176,0,176,0,313.9923010999919,,313.9767821999849,5,313.9923010999919,313.9923010999919,0.009644999983720481,315.63977989996783,[0.2625],[0.5],[1],[0],[0],[1.6533730999799445],['target'],718461,001,2024-10-05_14h53.16.918,Visual.Search_priyanshiAU2220101,2024.1.5,None,2024-10-05 14h53.23.690939 +0530,
177,0,177,0,315.67403129994636,,315.64229799999157,10,315.67403129994636,315.67403129994636,0.022582900011911988,317.37352359999204,[-0.4175],[0.443125],[1],[0],[0],[1.7088653999962844],['target'],718461,001,2024-10-05_14h53.16.918,Visual.Search_priyanshiAU2220101,2024.1.5,None,2024-10-05 14h53.23.690939 +0530,
178,0,178,0,317.3916177999927,,317.3757398999878,5,317.3916177999927,317.3916177999927,0.009824700013268739,318.6908175999997,[0.03375],[0.191875],[1],[0],[0],[1.3052421000320464],['target'],718461,001,2024-10-05_14h53.16.918,Visual.Search_priyanshiAU2220101,2024.1.5,None,2024-10-05 14h53.23.690939 +0530,
179,0,179,0,318.7084000999457,,318.69290409999667,5,318.7084000999457,318.7084000999457,0.009807399997953326,320.2909275999991,[-0.158125],[-0.14625],[1],[0],[0],[1.5882301999954507],['target'],718461,001,2024-10-05_14h53.16.918,Visual.Search_priyanshiAU2220101,2024.1.5,None,2024-10-05 14h53.23.690939 +0530,
180,0,180,0,320.32209219998913,,320.2934176999843,10,320.32209219998913,320.32209219998913,0.019726600032299757,322.24029839999275,[-0.184375],[-0.32],[1],[0],[0],[1.927289400016889],[],718461,001,2024-10-05_14h53.16.918,Visual.Search_priyanshiAU2220101,2024.1.5,None,2024-10-05 14h53.23.690939 +0530,
181,0,181,0,322.2694056999753,,322.24244999996154,10,322.2694056999753,322.2694056999753,0.018505699990782887,323.55621249997057,[-0.06125],[-0.325],[1],[0],[0],[1.2952374999877065],['target'],718461,001,2024-10-05_14h53.16.918,Visual.Search_priyanshiAU2220101,2024.1.5,None,2024-10-05 14h53.23.690939 +0530,
182,0,182,0,323.586293499975,,323.55838329996914,10,323.586293499975,323.586293499975,0.019139899988658726,325.18993519997457,[0.2075],[0.293125],[1],[0],[0],[1.6125221999827772],['target'],718461,001,2024-10-05_14h53.16.918,Visual.Search_priyanshiAU2220101,2024.1.5,None,2024-10-05 14h53.23.690939 +0530,
183,0,183,0,325.2079933999921,,325.19210859999293,5,325.2079933999921,325.2079933999921,0.009841299965046346,327.22426309995353,[0.410625],[0.415625],[1],[0],[0],[2.0223967999918386],['target'],718461,001,2024-10-05_14h53.16.918,Visual.Search_priyanshiAU2220101,2024.1.5,None,2024-10-05 14h53.23.690939 +0530,
184,0,184,0,327.2467834999552,,327.22710029996233,5,327.2467834999552,327.2467834999552,0.012976400030311197,328.5060957999667,[-0.098125],[0.374375],[1],[0],[0],[1.266149899980519],['target'],718461,001,2024-10-05_14h53.16.918,Visual.Search_priyanshiAU2220101,2024.1.5,None,2024-10-05 14h53.23.690939 +0530,
185,0,185,0,328.53583809995325,,328.50868139998056,10,328.53583809995325,328.53583809995325,0.018879800045397133,330.1727258999599,[-0.14625],[-0.0875],[1],[0],[0],[1.6452743000118062],['target'],718461,001,2024-10-05_14h53.16.918,Visual.Search_priyanshiAU2220101,2024.1.5,None,2024-10-05 14h53.23.690939 +0530,
186,0,186,0,330.2026656999951,,330.17492569994647,10,330.2026656999951,330.2026656999951,0.018949299992527813,332.02263349998975,[0.3075],[-0.363125],[1],[0],[0],[1.8287273999885656],['target'],718461,001,2024-10-05_14h53.16.918,Visual.Search_priyanshiAU2220101,2024.1.5,None,2024-10-05 14h53.23.690939 +0530,
187,0,187,0,332.0532556999824,,332.02477029996226,10,332.0532556999824,332.0532556999824,0.018790100002661347,333.3239297999535,[0.23125],[-0.154375],[1],[0],[0],[1.2803818000247702],['target'],718461,001,2024-10-05_14h53.16.918,Visual.Search_priyanshiAU2220101,2024.1.5,None,2024-10-05 14h53.23.690939 +0530,
188,0,188,0,333.3539003999904,,333.32611460000044,10,333.3539003999904,333.3539003999904,0.019032400043215603,334.87250599998515,[0.351875],[-0.170625],[1],[0],[0],[1.5273956000455655],['target'],718461,001,2024-10-05_14h53.16.918,Visual.Search_priyanshiAU2220101,2024.1.5,None,2024-10-05 14h53.23.690939 +0530,
189,0,189,0,334.9047875999822,,334.87490539997816,10,334.9047875999822,334.9047875999822,0.02086970000527799,336.8396121999831,[0.38125],[0.474375],[1],[0],[0],[1.9438255000277422],['target'],718461,001,2024-10-05_14h53.16.918,Visual.Search_priyanshiAU2220101,2024.1.5,None,2024-10-05 14h53.23.690939 +0530,
190,0,190,0,336.85915199999,,336.84238479996566,5,336.85915199999,336.85915199999,0.010759899974800646,338.6566605999833,[0.325],[-0.159375],[1],[0],[0],[1.8035557999974117],['target'],718461,001,2024-10-05_14h53.16.918,Visual.Search_priyanshiAU2220101,2024.1.5,None,2024-10-05 14h53.23.690939 +0530,
191,0,191,0,338.67530659999466,,338.6599841999705,5,338.67530659999466,338.67530659999466,0.010093500022776425,339.9057801999734,[-0.4075],[0.0225],[1],[0],[0],[1.236044499964919],['target'],718461,001,2024-10-05_14h53.16.918,Visual.Search_priyanshiAU2220101,2024.1.5,None,2024-10-05 14h53.23.690939 +0530,
192,0,192,0,339.9269302999601,,339.9088292999659,5,339.9269302999601,339.9269302999601,0.011762599984649569,341.7893317999551,[-0.371875],[0.2825],[1],[0],[0],[1.8688982999883592],['target'],718461,001,2024-10-05_14h53.16.918,Visual.Search_priyanshiAU2220101,2024.1.5,None,2024-10-05 14h53.23.690939 +0530,
193,0,193,0,341.8282462999923,,341.7941753999912,10,341.8282462999923,341.8282462999923,0.024312299967277795,343.5057007999858,[0.4775],[0.30625],[1],[0],[0],[1.687884800019674],['target'],718461,001,2024-10-05_14h53.16.918,Visual.Search_priyanshiAU2220101,2024.1.5,None,2024-10-05 14h53.23.690939 +0530,
194,0,194,0,343.536250599951,,343.5078473999747,10,343.536250599951,343.536250599951,0.01890389999607578,345.22277900000336,[-0.40625],[0.05375],[1],[0],[0],[1.6960194999701343],['target'],718461,001,2024-10-05_14h53.16.918,Visual.Search_priyanshiAU2220101,2024.1.5,None,2024-10-05 14h53.23.690939 +0530,
195,0,195,0,345.2557863999973,,345.2251965999603,10,345.2557863999973,345.2557863999973,0.02130530000431463,346.8390894999611,[0.419375],[0.21125],[1],[0],[0],[1.592637600027956],['target'],718461,001,2024-10-05_14h53.16.918,Visual.Search_priyanshiAU2220101,2024.1.5,None,2024-10-05 14h53.23.690939 +0530,
196,0,196,0,346.85713949997444,,346.84120609995443,5,346.85713949997444,346.85713949997444,0.00988530000904575,348.4729141999851,[-0.326875],[0.28],[1],[0],[0],[1.6216799999820068],['target'],718461,001,2024-10-05_14h53.16.918,Visual.Search_priyanshiAU2220101,2024.1.5,None,2024-10-05 14h53.23.690939 +0530,
197,0,197,0,348.5076505999896,,348.47757089999504,10,348.5076505999896,348.5076505999896,0.02174549998017028,349.8562143999734,[-0.26375],[0.356875],[1],[0],[0],[1.3574768000398763],['target'],718461,001,2024-10-05_14h53.16.918,Visual.Search_priyanshiAU2220101,2024.1.5,None,2024-10-05 14h53.23.690939 +0530,
198,0,198,0,349.8741673999466,,349.8583786999807,5,349.8741673999466,349.8741673999466,0.009951299987733364,350.8732522999635,[-0.255625],[0.3075],[1],[0],[0],[1.0049556999583729],['target'],718461,001,2024-10-05_14h53.16.918,Visual.Search_priyanshiAU2220101,2024.1.5,None,2024-10-05 14h53.23.690939 +0530,
199,0,199,0,350.8917728999513,,350.87548289995175,5,350.8917728999513,350.8917728999513,0.010376899968832731,354.3052670999896,[-0.010625],[-0.024375],[1],[0],[0],[3.4194255999755114],['target'],718461,001,2024-10-05_14h53.16.918,Visual.Search_priyanshiAU2220101,2024.1.5,None,2024-10-05 14h53.23.690939 +0530,
