trials.thisRepN,trials.thisTrialN,trials.thisN,trials.thisIndex,thisRow.t,notes,trial.started,num_distr,fixation.started,target.started,mouse.started,trial.stopped,mouse.x,mouse.y,mouse.leftButton,mouse.midButton,mouse.rightButton,mouse.time,mouse.clicked_name,participant,session,date,expName,psychopyVersion,frameRate,expStart,
0,0,0,0,0.06597320002038032,,0.0061107000219635665,10,0.06597320002038032,0.06597320002038032,0.04575610003666952,2.2908305000164546,[-0.25625],[-0.04375],[1],[0],[0],[2.244211599987466],['target'],831797,001,2024-10-05_14h25.49.281,Visual.Search_priyanshiAU2220101,2024.1.5,None,2024-10-05 14h25.57.949701 +0530,
1,0,1,0,2.338110200013034,,2.296370299998671,10,2.338110200013034,2.338110200013034,0.028330400004051626,4.0970476000220515,[-0.155625],[-0.033125],[1],[0],[0],[1.7725556999794208],['target'],831797,001,2024-10-05_14h25.49.281,Visual.Search_priyanshiAU2220101,2024.1.5,None,2024-10-05 14h25.57.949701 +0530,
2,0,2,0,4.137933799996972,,4.10033410001779,10,4.137933799996972,4.137933799996972,0.02544210001360625,5.878345299977809,[0.02375],[0.026875],[1],[0],[0],[1.7527803999837488],['target'],831797,001,2024-10-05_14h25.49.281,Visual.Search_priyanshiAU2220101,2024.1.5,None,2024-10-05 14h25.57.949701 +0530,
3,0,3,0,5.904074100020807,,5.881991099973675,5,5.904074100020807,5.904074100020807,0.015411100001074374,7.646773000014946,[0.365625],[0.09625],[1],[0],[0],[1.7496622999897227],['target'],831797,001,2024-10-05_14h25.49.281,Visual.Search_priyanshiAU2220101,2024.1.5,None,2024-10-05 14h25.57.949701 +0530,
4,0,4,0,7.690679799998179,,7.65036999998847,10,7.690679799998179,7.690679799998179,0.028956099995411932,9.462265699985437,[-0.078125],[0.31625],[1],[0],[0],[1.7832170999608934],['target'],831797,001,2024-10-05_14h25.49.281,Visual.Search_priyanshiAU2220101,2024.1.5,None,2024-10-05 14h25.57.949701 +0530,
5,0,5,0,9.488047700026073,,9.465980299981311,5,9.488047700026073,9.488047700026073,0.015003300039097667,11.562576500000432,[-0.24],[0.42125],[1],[0],[0],[2.081888100015931],['target'],831797,001,2024-10-05_14h25.49.281,Visual.Search_priyanshiAU2220101,2024.1.5,None,2024-10-05 14h25.57.949701 +0530,
6,0,6,0,11.589219700021204,,11.56651699997019,5,11.589219700021204,11.589219700021204,0.01585630001500249,12.995246100006625,[0.1275],[0.33375],[1],[0],[0],[1.413536700012628],['target'],831797,001,2024-10-05_14h25.49.281,Visual.Search_priyanshiAU2220101,2024.1.5,None,2024-10-05 14h25.57.949701 +0530,
7,0,7,0,13.0385170999798,,12.998876400000881,10,13.0385170999798,13.0385170999798,0.029150199959985912,14.762174999981653,[-0.48375],[0.254375],[1],[0],[0],[1.7343793000327423],['target'],831797,001,2024-10-05_14h25.49.281,Visual.Search_priyanshiAU2220101,2024.1.5,None,2024-10-05 14h25.57.949701 +0530,
8,0,8,0,14.791688799974509,,14.766842300014105,5,14.791688799974509,14.791688799974509,0.018267799983732402,16.74737489997642,[0.453125],[-0.23125],[1],[0],[0],[1.962529300013557],['target'],831797,001,2024-10-05_14h25.49.281,Visual.Search_priyanshiAU2220101,2024.1.5,None,2024-10-05 14h25.57.949701 +0530,
9,0,9,0,16.78912530001253,,16.75145679997513,10,16.78912530001253,16.78912530001253,0.027344200003426522,18.312285499996506,[0.124375],[-0.01625],[1],[0],[0],[1.5338993000332266],['target'],831797,001,2024-10-05_14h25.49.281,Visual.Search_priyanshiAU2220101,2024.1.5,None,2024-10-05 14h25.57.949701 +0530,
10,0,10,0,18.357948900025804,,18.315961899992544,10,18.357948900025804,18.357948900025804,0.029238399991299957,21.012051499972586,[0.131875],[-0.48],[1],[0],[0],[2.6672548999777064],['target'],831797,001,2024-10-05_14h25.49.281,Visual.Search_priyanshiAU2220101,2024.1.5,None,2024-10-05 14h25.57.949701 +0530,
11,0,11,0,21.062924599973485,,21.015706499980297,10,21.062924599973485,21.062924599973485,0.03194750001421198,22.611835399991833,[0.013125],[-0.45],[1],[0],[0],[1.5645293000270613],['target'],831797,001,2024-10-05_14h25.49.281,Visual.Search_priyanshiAU2220101,2024.1.5,None,2024-10-05 14h25.57.949701 +0530,
12,0,12,0,22.637885499978438,,22.615549099980853,5,22.637885499978438,22.637885499978438,0.015397200011648238,24.11286429996835,[-0.4625],[0.1275],[1],[0],[0],[1.4822572999983095],['target'],831797,001,2024-10-05_14h25.49.281,Visual.Search_priyanshiAU2220101,2024.1.5,None,2024-10-05 14h25.57.949701 +0530,
13,0,13,0,24.140070699970238,,24.116515000001527,5,24.140070699970238,24.140070699970238,0.015916200005449355,25.795351599983405,[0.06625],[0.198125],[1],[0],[0],[1.6632041000411846],['target'],831797,001,2024-10-05_14h25.49.281,Visual.Search_priyanshiAU2220101,2024.1.5,None,2024-10-05 14h25.57.949701 +0530,
14,0,14,0,25.840029400016647,,25.798983299988322,10,25.840029400016647,25.840029400016647,0.02941310004098341,27.364286899974104,[-0.250625],[-0.074375],[1],[0],[0],[1.535913499945309],[],831797,001,2024-10-05_14h25.49.281,Visual.Search_priyanshiAU2220101,2024.1.5,None,2024-10-05 14h25.57.949701 +0530,
15,0,15,0,27.39537169999676,,27.368531799991615,5,27.39537169999676,27.39537169999676,0.01759100001072511,29.129445599974133,[-0.223125],[-0.240625],[1],[0],[0],[1.743890600046143],['target'],831797,001,2024-10-05_14h25.49.281,Visual.Search_priyanshiAU2220101,2024.1.5,None,2024-10-05 14h25.57.949701 +0530,
16,0,16,0,29.173088299983647,,29.133449500019196,10,29.173088299983647,29.173088299983647,0.028523000015411526,30.579406299977563,[-0.085625],[0.079375],[1],[0],[0],[1.4171999999671243],['target'],831797,001,2024-10-05_14h25.49.281,Visual.Search_priyanshiAU2220101,2024.1.5,None,2024-10-05 14h25.57.949701 +0530,
17,0,17,0,30.606302100000903,,30.583205799979623,5,30.606302100000903,30.606302100000903,0.015529699972830713,32.09579739999026,[0.166875],[-0.13375],[1],[0],[0],[1.4973824999760836],['target'],831797,001,2024-10-05_14h25.49.281,Visual.Search_priyanshiAU2220101,2024.1.5,None,2024-10-05 14h25.57.949701 +0530,
18,0,18,0,32.13934170000721,,32.099510599975474,10,32.13934170000721,32.13934170000721,0.028087600017897785,33.81153639999684,[-0.066875],[-0.0425],[1],[0],[0],[1.6843167999759316],['target'],831797,001,2024-10-05_14h25.49.281,Visual.Search_priyanshiAU2220101,2024.1.5,None,2024-10-05 14h25.57.949701 +0530,
19,0,19,0,33.837758900015615,,33.81518799997866,5,33.837758900015615,33.837758900015615,0.01529760000994429,35.67856119998032,[-0.454375],[-0.288125],[1],[0],[0],[1.8484137000050396],['target'],831797,001,2024-10-05_14h25.49.281,Visual.Search_priyanshiAU2220101,2024.1.5,None,2024-10-05 14h25.57.949701 +0530,
20,0,20,0,35.70497830002569,,35.682217599998694,5,35.70497830002569,35.70497830002569,0.015645199979189783,37.611507199995685,[-0.45],[0.425625],[1],[0],[0],[1.9139771000482142],['target'],831797,001,2024-10-05_14h25.49.281,Visual.Search_priyanshiAU2220101,2024.1.5,None,2024-10-05 14h25.57.949701 +0530,
21,0,21,0,37.63790600001812,,37.61527000000933,5,37.63790600001812,37.63790600001812,0.01536580000538379,39.49489209998865,[-0.464375],[-0.43],[1],[0],[0],[1.864648999995552],['target'],831797,001,2024-10-05_14h25.49.281,Visual.Search_priyanshiAU2220101,2024.1.5,None,2024-10-05 14h25.57.949701 +0530,
22,0,22,0,39.538684399973135,,39.49844270001631,10,39.538684399973135,39.538684399973135,0.028829900023993105,41.49589859996922,[-0.204375],[-0.3775],[1],[0],[0],[1.968501000024844],[],831797,001,2024-10-05_14h25.49.281,Visual.Search_priyanshiAU2220101,2024.1.5,None,2024-10-05 14h25.57.949701 +0530,
23,0,23,0,41.52160989999538,,41.49872640002286,5,41.52160989999538,41.52160989999538,0.0152766999672167,42.88027089997195,[0.04625],[0.120625],[1],[0],[0],[1.3662037000176497],['target'],831797,001,2024-10-05_14h25.49.281,Visual.Search_priyanshiAU2220101,2024.1.5,None,2024-10-05 14h25.57.949701 +0530,
24,0,24,0,42.932960300007835,,42.88739639997948,5,42.932960300007835,42.932960300007835,0.034879200044088066,44.64546710002469,[-0.29875],[-0.139375],[1],[0],[0],[1.7243229000014253],['target'],831797,001,2024-10-05_14h25.49.281,Visual.Search_priyanshiAU2220101,2024.1.5,None,2024-10-05 14h25.57.949701 +0530,
25,0,25,0,44.681368199991994,,44.651012999995146,5,44.681368199991994,44.681368199991994,0.022870399989187717,46.677366800024174,[0.260625],[0.0675],[1],[0],[0],[2.0042507000034675],['target'],831797,001,2024-10-05_14h25.49.281,Visual.Search_priyanshiAU2220101,2024.1.5,None,2024-10-05 14h25.57.949701 +0530,
26,0,26,0,46.70256479998352,,46.68091400002595,5,46.70256479998352,46.70256479998352,0.015011899988166988,48.26151340000797,[-0.2775],[-0.364375],[1],[0],[0],[1.5658703000517562],['target'],831797,001,2024-10-05_14h25.49.281,Visual.Search_priyanshiAU2220101,2024.1.5,None,2024-10-05 14h25.57.949701 +0530,
27,0,27,0,48.28789300000062,,48.265164499985985,5,48.28789300000062,48.28789300000062,0.015510700002778322,49.811938099970575,[-0.06],[-0.34625],[1],[0],[0],[1.5314587999600917],['target'],831797,001,2024-10-05_14h25.49.281,Visual.Search_priyanshiAU2220101,2024.1.5,None,2024-10-05 14h25.57.949701 +0530,
28,0,28,0,49.86034130002372,,49.814787600014824,10,49.86034130002372,49.86034130002372,0.03180719999363646,51.77807669999311,[0.460625],[0.171875],[1],[0],[0],[1.9314566000248305],['target'],831797,001,2024-10-05_14h25.49.281,Visual.Search_priyanshiAU2220101,2024.1.5,None,2024-10-05 14h25.57.949701 +0530,
29,0,29,0,51.80550279997988,,51.781400299980305,5,51.80550279997988,51.80550279997988,0.014964699978008866,53.69593829999212,[-0.153125],[0.34125],[1],[0],[0],[1.8995780000113882],['target'],831797,001,2024-10-05_14h25.49.281,Visual.Search_priyanshiAU2220101,2024.1.5,None,2024-10-05 14h25.57.949701 +0530,
30,0,30,0,53.72754709998844,,53.70077090000268,5,53.72754709998844,53.72754709998844,0.018655899970326573,55.52856449998217,[-0.36],[-0.2475],[1],[0],[0],[1.8095258999965154],['target'],831797,001,2024-10-05_14h25.49.281,Visual.Search_priyanshiAU2220101,2024.1.5,None,2024-10-05 14h25.57.949701 +0530,
31,0,31,0,55.55520110001089,,55.53273390000686,5,55.55520110001089,55.55520110001089,0.014419499959331006,57.3608381000231,[0.376875],[-0.105625],[1],[0],[0],[1.8139297000016086],['target'],831797,001,2024-10-05_14h25.49.281,Visual.Search_priyanshiAU2220101,2024.1.5,None,2024-10-05 14h25.57.949701 +0530,
32,0,32,0,57.48945420002565,,57.36608900001738,10,57.48945420002565,57.48945420002565,0.1105105999740772,59.19427999999607,[0.29625],[-0.4325],[1],[0],[0],[1.7181502999737859],['target'],831797,001,2024-10-05_14h25.49.281,Visual.Search_priyanshiAU2220101,2024.1.5,None,2024-10-05 14h25.57.949701 +0530,
33,0,33,0,59.243935199978296,,59.19955909997225,10,59.243935199978296,59.243935199978296,0.033292400010395795,60.628822900005616,[0.193125],[-0.08875],[1],[0],[0],[1.3966575000085868],['target'],831797,001,2024-10-05_14h25.49.281,Visual.Search_priyanshiAU2220101,2024.1.5,None,2024-10-05 14h25.57.949701 +0530,
34,0,34,0,60.65655959997093,,60.632404699979816,5,60.65655959997093,60.65655959997093,0.01685640000505373,62.393817299976945,[-0.44625],[0.191875],[1],[0],[0],[1.7448516000295058],['target'],831797,001,2024-10-05_14h25.49.281,Visual.Search_priyanshiAU2220101,2024.1.5,None,2024-10-05 14h25.57.949701 +0530,
35,0,35,0,62.44320829998469,,62.39745859999675,10,62.44320829998469,62.44320829998469,0.033151599986013025,64.21077900001546,[-0.499375],[0.149375],[1],[0],[0],[1.7805913999909535],['target'],831797,001,2024-10-05_14h25.49.281,Visual.Search_priyanshiAU2220101,2024.1.5,None,2024-10-05 14h25.57.949701 +0530,
36,0,36,0,64.26187470002333,,64.21444080001675,10,64.26187470002333,64.26187470002333,0.03018750000046566,66.31110320001608,[-0.426875],[-0.45125],[1],[0],[0],[2.066653099958785],['target'],831797,001,2024-10-05_14h25.49.281,Visual.Search_priyanshiAU2220101,2024.1.5,None,2024-10-05 14h25.57.949701 +0530,
37,0,37,0,66.3469789000228,,66.31636890000664,5,66.3469789000228,66.3469789000228,0.023242899973411113,67.91092110000318,[-0.116875],[0.424375],[1],[0],[0],[1.5720887000206858],['target'],831797,001,2024-10-05_14h25.49.281,Visual.Search_priyanshiAU2220101,2024.1.5,None,2024-10-05 14h25.57.949701 +0530,
38,0,38,0,67.94927410001401,,67.91638409998268,5,67.94927410001401,67.94927410001401,0.021104799991007894,70.27683450002223,[0.32125],[0.394375],[1],[0],[0],[2.340120700013358],['target'],831797,001,2024-10-05_14h25.49.281,Visual.Search_priyanshiAU2220101,2024.1.5,None,2024-10-05 14h25.57.949701 +0530,
39,0,39,0,70.32106139999814,,70.28069719998166,10,70.32106139999814,70.32106139999814,0.02932820003479719,72.81130970001686,[0.151875],[0.09],[1],[0],[0],[2.5014985000016168],['target'],831797,001,2024-10-05_14h25.49.281,Visual.Search_priyanshiAU2220101,2024.1.5,None,2024-10-05 14h25.57.949701 +0530,
40,0,40,0,72.86003470001742,,72.81418799998937,10,72.86003470001742,72.86003470001742,0.030042099999263883,74.9277336000232,[0.18375],[-0.17],[1],[0],[0],[2.0835585999884643],['target'],831797,001,2024-10-05_14h25.49.281,Visual.Search_priyanshiAU2220101,2024.1.5,None,2024-10-05 14h25.57.949701 +0530,
41,0,41,0,74.97226469998714,,74.9305444000056,10,74.97226469998714,74.97226469998714,0.0248585999943316,76.87875839998014,[0.218125],[-0.43625],[1],[0],[0],[1.9235102999955416],['target'],831797,001,2024-10-05_14h25.49.281,Visual.Search_priyanshiAU2220101,2024.1.5,None,2024-10-05 14h25.57.949701 +0530,
42,0,42,0,76.92370059998939,,76.88346029998502,10,76.92370059998939,76.92370059998939,0.029492300003767014,79.8115289999987,[-0.45125],[0.419375],[1],[0],[0],[2.8987435000017285],['target'],831797,001,2024-10-05_14h25.49.281,Visual.Search_priyanshiAU2220101,2024.1.5,None,2024-10-05 14h25.57.949701 +0530,
43,0,43,0,79.84503919997951,,79.81623509997735,5,79.84503919997951,79.84503919997951,0.018944900017231703,81.27773019997403,[-0.0425],[0.26125],[1],[0],[0],[1.4430797999957576],['target'],831797,001,2024-10-05_14h25.49.281,Visual.Search_priyanshiAU2220101,2024.1.5,None,2024-10-05 14h25.57.949701 +0530,
44,0,44,0,81.30800830002408,,81.28276139998343,5,81.30800830002408,81.30800830002408,0.015408099978230894,83.22737380000763,[-0.3825],[0.441875],[1],[0],[0],[1.9295249999850057],['target'],831797,001,2024-10-05_14h25.49.281,Visual.Search_priyanshiAU2220101,2024.1.5,None,2024-10-05 14h25.57.949701 +0530,
45,0,45,0,83.2513335000258,,83.23043860000325,5,83.2513335000258,83.2513335000258,0.013910399982705712,84.59540519997245,[-0.1025],[0.44875],[1],[0],[0],[1.3510248000384308],['target'],831797,001,2024-10-05_14h25.49.281,Visual.Search_priyanshiAU2220101,2024.1.5,None,2024-10-05 14h25.57.949701 +0530,
46,0,46,0,84.61884200002532,,84.5982609000057,5,84.61884200002532,84.61884200002532,0.013345200044568628,85.96053229999961,[-0.080625],[-0.07125],[1],[0],[0],[1.3488725000061095],['target'],831797,001,2024-10-05_14h25.49.281,Visual.Search_priyanshiAU2220101,2024.1.5,None,2024-10-05 14h25.57.949701 +0530,
47,0,47,0,86.01120730000548,,85.96526809997158,10,86.01120730000548,86.01120730000548,0.031567600031849,87.19322080002166,[-0.119375],[-0.080625],[1],[0],[0],[1.1967330999905244],['target'],831797,001,2024-10-05_14h25.49.281,Visual.Search_priyanshiAU2220101,2024.1.5,None,2024-10-05 14h25.57.949701 +0530,
48,0,48,0,87.23624210001435,,87.19695710000815,10,87.23624210001435,87.23624210001435,0.029035400017164648,89.06081629998516,[0.185625],[0.38125],[1],[0],[0],[1.8349457999574952],['target'],831797,001,2024-10-05_14h25.49.281,Visual.Search_priyanshiAU2220101,2024.1.5,None,2024-10-05 14h25.57.949701 +0530,
49,0,49,0,89.09500829997705,,89.06534979998833,5,89.09500829997705,89.09500829997705,0.018092900048941374,91.61154120002175,[0.4825],[0.10625],[1],[0],[0],[2.5287013999768533],[],831797,001,2024-10-05_14h25.49.281,Visual.Search_priyanshiAU2220101,2024.1.5,None,2024-10-05 14h25.57.949701 +0530,
50,0,50,0,91.66743590001715,,91.61677650001366,10,91.66743590001715,91.66743590001715,0.032314399955794215,93.46114999998827,[-0.145],[0.040625],[1],[0],[0],[1.8125341999693774],['target'],831797,001,2024-10-05_14h25.49.281,Visual.Search_priyanshiAU2220101,2024.1.5,None,2024-10-05 14h25.57.949701 +0530,
51,0,51,0,93.49199379998026,,93.46465629996965,5,93.49199379998026,93.49199379998026,0.015167500008828938,95.12659419997362,[-0.364375],[-0.468125],[1],[0],[0],[1.64696779998485],['target'],831797,001,2024-10-05_14h25.49.281,Visual.Search_priyanshiAU2220101,2024.1.5,None,2024-10-05 14h25.57.949701 +0530,
52,0,52,0,95.15789949998725,,95.1305079999729,5,95.15789949998725,95.15789949998725,0.01591849996475503,96.41096509998897,[0.031875],[0.100625],[1],[0],[0],[1.2648620000109076],['target'],831797,001,2024-10-05_14h25.49.281,Visual.Search_priyanshiAU2220101,2024.1.5,None,2024-10-05 14h25.57.949701 +0530,
53,0,53,0,96.4423836999922,,96.41436799999792,5,96.4423836999922,96.4423836999922,0.014338799985125661,98.07602999999654,[0.309375],[0.043125],[1],[0],[0],[1.6480753000359982],['target'],831797,001,2024-10-05_14h25.49.281,Visual.Search_priyanshiAU2220101,2024.1.5,None,2024-10-05 14h25.57.949701 +0530,
54,0,54,0,98.10881449998124,,98.07973240001593,5,98.10881449998124,98.10881449998124,0.01588849996915087,99.64435989997583,[-0.495625],[-0.398125],[1],[0],[0],[1.5488839999889024],['target'],831797,001,2024-10-05_14h25.49.281,Visual.Search_priyanshiAU2220101,2024.1.5,None,2024-10-05 14h25.57.949701 +0530,
55,0,55,0,99.67226830002619,,99.64715350000188,5,99.67226830002619,99.67226830002619,0.013467199984006584,100.07740589999594,[-0.495625],[-0.398125],[1],[0],[0],[0.41677539999363944],[],831797,001,2024-10-05_14h25.49.281,Visual.Search_priyanshiAU2220101,2024.1.5,None,2024-10-05 14h25.57.949701 +0530,
56,0,56,0,100.10644549998688,,100.08035070000915,5,100.10644549998688,100.10644549998688,0.014268100028857589,102.14258340001106,[0.270625],[0.11625],[1],[0],[0],[2.0481507000513375],['target'],831797,001,2024-10-05_14h25.49.281,Visual.Search_priyanshiAU2220101,2024.1.5,None,2024-10-05 14h25.57.949701 +0530,
57,0,57,0,102.1818608000176,,102.14726759999758,5,102.1818608000176,102.1818608000176,0.024233500007539988,103.56048589997226,[0.11375],[-0.04],[1],[0],[0],[1.389252300024964],['target'],831797,001,2024-10-05_14h25.49.281,Visual.Search_priyanshiAU2220101,2024.1.5,None,2024-10-05 14h25.57.949701 +0530,
58,0,58,0,103.61896009999327,,103.56665499997325,10,103.61896009999327,103.61896009999327,0.04079339996678755,105.36017040000297,[-0.193125],[-0.23875],[1],[0],[0],[1.7536051999777555],['target'],831797,001,2024-10-05_14h25.49.281,Visual.Search_priyanshiAU2220101,2024.1.5,None,2024-10-05 14h25.57.949701 +0530,
59,0,59,0,105.38646090001566,,105.36417740001343,5,105.38646090001566,105.38646090001566,0.015619400015566498,106.86049569997704,[0.130625],[0.01125],[1],[0],[0],[1.4809747000108473],['target'],831797,001,2024-10-05_14h25.49.281,Visual.Search_priyanshiAU2220101,2024.1.5,None,2024-10-05 14h25.57.949701 +0530,
60,0,60,0,106.91433250001865,,106.8643476999714,10,106.91433250001865,106.91433250001865,0.037009799969382584,108.41144489997532,[0.38875],[-0.154375],[1],[0],[0],[1.510231299966108],['target'],831797,001,2024-10-05_14h25.49.281,Visual.Search_priyanshiAU2220101,2024.1.5,None,2024-10-05 14h25.57.949701 +0530,
61,0,61,0,108.46495529997628,,108.41684030002216,10,108.46495529997628,108.46495529997628,0.03341890004230663,109.9602409999934,[0.22875],[-0.203125],[1],[0],[0],[1.5106823000242002],['target'],831797,001,2024-10-05_14h25.49.281,Visual.Search_priyanshiAU2220101,2024.1.5,None,2024-10-05 14h25.57.949701 +0530,
62,0,62,0,110.00605099997483,,109.96398890001001,10,110.00605099997483,110.00605099997483,0.02961750002577901,111.6769895000034,[0.485],[-0.335],[1],[0],[0],[1.683764900022652],['target'],831797,001,2024-10-05_14h25.49.281,Visual.Search_priyanshiAU2220101,2024.1.5,None,2024-10-05 14h25.57.949701 +0530,
63,0,63,0,111.71587989997352,,111.68073010002263,5,111.71587989997352,111.71587989997352,0.01932320004561916,113.37639400002081,[0.011875],[-0.0925],[1],[0],[0],[1.6764187999651767],['target'],831797,001,2024-10-05_14h25.49.281,Visual.Search_priyanshiAU2220101,2024.1.5,None,2024-10-05 14h25.57.949701 +0530,
64,0,64,0,113.41487139998935,,113.38088529999368,5,113.41487139998935,113.41487139998935,0.02141070005018264,115.92607919999864,[0.018125],[-0.000625],[1],[0],[0],[2.5242654000176117],[],831797,001,2024-10-05_14h25.49.281,Visual.Search_priyanshiAU2220101,2024.1.5,None,2024-10-05 14h25.57.949701 +0530,
65,0,65,0,115.95826290000696,,115.93013459997019,5,115.95826290000696,115.95826290000696,0.018411700031720102,117.46012399997562,[-0.11375],[0.023125],[1],[0],[0],[1.5120127000263892],['target'],831797,001,2024-10-05_14h25.49.281,Visual.Search_priyanshiAU2220101,2024.1.5,None,2024-10-05 14h25.57.949701 +0530,
66,0,66,0,117.51034430001164,,117.46348119998584,10,117.51034430001164,117.51034430001164,0.033815600036177784,119.17649159999564,[-0.103125],[-0.236875],[1],[0],[0],[1.6788207999779843],['target'],831797,001,2024-10-05_14h25.49.281,Visual.Search_priyanshiAU2220101,2024.1.5,None,2024-10-05 14h25.57.949701 +0530,
67,0,67,0,119.20775220001815,,119.18026659998577,5,119.20775220001815,119.20775220001815,0.01777790003689006,120.95957649999764,[0.3],[-0.293125],[1],[0],[0],[1.7619485000032],['target'],831797,001,2024-10-05_14h25.49.281,Visual.Search_priyanshiAU2220101,2024.1.5,None,2024-10-05 14h25.57.949701 +0530,
68,0,68,0,120.99192920001224,,120.96486309997272,5,120.99192920001224,120.99192920001224,0.01862070005154237,122.32630379998591,[0.249375],[-0.2525],[1],[0],[0],[1.343516599969007],['target'],831797,001,2024-10-05_14h25.49.281,Visual.Search_priyanshiAU2220101,2024.1.5,None,2024-10-05 14h25.57.949701 +0530,
69,0,69,0,122.37829369999235,,122.33166580001125,10,122.37829369999235,122.37829369999235,0.03355579997878522,123.82744010002352,[0.284375],[-0.058125],[1],[0],[0],[1.4632183999638073],['target'],831797,001,2024-10-05_14h25.49.281,Visual.Search_priyanshiAU2220101,2024.1.5,None,2024-10-05 14h25.57.949701 +0530,
70,0,70,0,123.86225840001134,,123.8348660999909,5,123.86225840001134,123.86225840001134,0.020000500022433698,125.24355780001497,[0.284375],[-0.2925],[1],[0],[0],[1.389765299973078],['target'],831797,001,2024-10-05_14h25.49.281,Visual.Search_priyanshiAU2220101,2024.1.5,None,2024-10-05 14h25.57.949701 +0530,
71,0,71,0,125.29953560000286,,125.24751040001865,10,125.29953560000286,125.29953560000286,0.03692029998637736,127.81012550002197,[0.016875],[0.43125],[1],[0],[0],[2.5259915000060573],['target'],831797,001,2024-10-05_14h25.49.281,Visual.Search_priyanshiAU2220101,2024.1.5,None,2024-10-05 14h25.57.949701 +0530,
72,0,72,0,127.8697291999706,,127.81522270001005,10,127.8697291999706,127.8697291999706,0.038239500019699335,128.80882909998763,[-0.006875],[0.39875],[1],[0],[0],[0.956130700011272],['target'],831797,001,2024-10-05_14h25.49.281,Visual.Search_priyanshiAU2220101,2024.1.5,None,2024-10-05 14h25.57.949701 +0530,
73,0,73,0,128.84145259996876,,128.8126642999705,5,128.84145259996876,128.84145259996876,0.01919699995778501,130.17575759999454,[0.125],[-0.03375],[1],[0],[0],[1.3442348000244237],['target'],831797,001,2024-10-05_14h25.49.281,Visual.Search_priyanshiAU2220101,2024.1.5,None,2024-10-05 14h25.57.949701 +0530,
74,0,74,0,130.20352570002433,,130.17980969999917,5,130.20352570002433,130.20352570002433,0.016867800033651292,132.15987159998622,[-0.40625],[-0.23875],[1],[0],[0],[1.96332620002795],['target'],831797,001,2024-10-05_14h25.49.281,Visual.Search_priyanshiAU2220101,2024.1.5,None,2024-10-05 14h25.57.949701 +0530,
75,0,75,0,132.18640230002347,,132.16290559998015,5,132.18640230002347,132.18640230002347,0.01632279995828867,133.57655019999947,[-0.429375],[-0.075625],[1],[0],[0],[1.3973953000386246],['target'],831797,001,2024-10-05_14h25.49.281,Visual.Search_priyanshiAU2220101,2024.1.5,None,2024-10-05 14h25.57.949701 +0530,
76,0,76,0,133.60629500000505,,133.58162249997258,5,133.60629500000505,133.60629500000505,0.017353400005958974,135.3588303999859,[-0.36375],[-0.265625],[1],[0],[0],[1.7605401999899186],[],831797,001,2024-10-05_14h25.49.281,Visual.Search_priyanshiAU2220101,2024.1.5,None,2024-10-05 14h25.57.949701 +0530,
77,0,77,0,135.39303420000942,,135.36304000002565,5,135.39303420000942,135.39303420000942,0.017996499955188483,137.0594046000042,[-0.073125],[-0.299375],[1],[0],[0],[1.678598799975589],['target'],831797,001,2024-10-05_14h25.49.281,Visual.Search_priyanshiAU2220101,2024.1.5,None,2024-10-05 14h25.57.949701 +0530,
78,0,78,0,137.10908560000826,,137.06343500001822,10,137.10908560000826,137.10908560000826,0.03266169998096302,138.64211149996845,[0.08875],[-0.05375],[1],[0],[0],[1.5461744000203907],['target'],831797,001,2024-10-05_14h25.49.281,Visual.Search_priyanshiAU2220101,2024.1.5,None,2024-10-05 14h25.57.949701 +0530,
79,0,79,0,138.687274899974,,138.6487719999859,5,138.687274899974,138.687274899974,0.02498720004223287,140.10868000000482,[0.11125],[0.0725],[1],[0],[0],[1.4359087000484578],['target'],831797,001,2024-10-05_14h25.49.281,Visual.Search_priyanshiAU2220101,2024.1.5,None,2024-10-05 14h25.57.949701 +0530,
80,0,80,0,140.1648564999923,,140.1139727999689,10,140.1648564999923,140.1648564999923,0.03737159998854622,141.64249990001554,[0.214375],[-0.114375],[1],[0],[0],[1.4917578999884427],['target'],831797,001,2024-10-05_14h25.49.281,Visual.Search_priyanshiAU2220101,2024.1.5,None,2024-10-05 14h25.57.949701 +0530,
81,0,81,0,141.6940806999919,,141.6474761000136,10,141.6940806999919,141.6940806999919,0.033384100010152906,143.09218889998738,[0.2175],[0.07],[1],[0],[0],[1.4118393999524415],['target'],831797,001,2024-10-05_14h25.49.281,Visual.Search_priyanshiAU2220101,2024.1.5,None,2024-10-05 14h25.57.949701 +0530,
82,0,82,0,143.15101239999058,,143.09744809998665,10,143.15101239999058,143.15101239999058,0.03578500001458451,144.9423188000219,[-0.064375],[-0.401875],[1],[0],[0],[1.8096606999752112],['target'],831797,001,2024-10-05_14h25.49.281,Visual.Search_priyanshiAU2220101,2024.1.5,None,2024-10-05 14h25.57.949701 +0530,
83,0,83,0,145.00004559999797,,144.94685339997523,10,145.00004559999797,145.00004559999797,0.0387081999797374,146.9749584000092,[-0.325],[0.31875],[1],[0],[0],[1.9902021999587305],['target'],831797,001,2024-10-05_14h25.49.281,Visual.Search_priyanshiAU2220101,2024.1.5,None,2024-10-05 14h25.57.949701 +0530,
84,0,84,0,146.99867290002294,,146.97783160000108,5,146.99867290002294,146.99867290002294,0.013507299998309463,148.95941599999787,[-0.00125],[-0.4225],[1],[0],[0],[1.9681748999864794],['target'],831797,001,2024-10-05_14h25.49.281,Visual.Search_priyanshiAU2220101,2024.1.5,None,2024-10-05 14h25.57.949701 +0530,
85,0,85,0,148.99871900002472,,148.96229290001793,10,148.99871900002472,148.99871900002472,0.02471160003915429,150.97543980000773,[-0.35],[0.3325],[1],[0],[0],[1.9884634999907576],['target'],831797,001,2024-10-05_14h25.49.281,Visual.Search_priyanshiAU2220101,2024.1.5,None,2024-10-05 14h25.57.949701 +0530,
86,0,86,0,150.99853500002064,,150.97867280000355,5,150.99853500002064,150.99853500002064,0.013403900025878102,152.70813849999104,[0.37375],[0.078125],[1],[0],[0],[1.7163963000057265],['target'],831797,001,2024-10-05_14h25.49.281,Visual.Search_priyanshiAU2220101,2024.1.5,None,2024-10-05 14h25.57.949701 +0530,
87,0,87,0,152.75488670001505,,152.71097740001278,10,152.75488670001505,152.75488670001505,0.02827929996419698,154.44302810000954,[-0.06375],[0.155625],[1],[0],[0],[1.7038577999919653],['target'],831797,001,2024-10-05_14h25.49.281,Visual.Search_priyanshiAU2220101,2024.1.5,None,2024-10-05 14h25.57.949701 +0530,
88,0,88,0,154.49617559998296,,154.44823629996972,10,154.49617559998296,154.49617559998296,0.03586330002872273,156.1086150999763,[0.018125],[-0.32375],[1],[0],[0],[1.6251505000400357],['target'],831797,001,2024-10-05_14h25.49.281,Visual.Search_priyanshiAU2220101,2024.1.5,None,2024-10-05 14h25.57.949701 +0530,
89,0,89,0,156.1510821999982,,156.11150260001887,10,156.1510821999982,156.1510821999982,0.02429799997480586,157.59276869997848,[0.01375],[0.34625],[1],[0],[0],[1.4567981000291184],['target'],831797,001,2024-10-05_14h25.49.281,Visual.Search_priyanshiAU2220101,2024.1.5,None,2024-10-05 14h25.57.949701 +0530,
90,0,90,0,157.62184239999624,,157.59570190001978,5,157.62184239999624,157.62184239999624,0.017426000034902245,159.12503449997166,[0.275625],[0.043125],[1],[0],[0],[1.512101000000257],['target'],831797,001,2024-10-05_14h25.49.281,Visual.Search_priyanshiAU2220101,2024.1.5,None,2024-10-05 14h25.57.949701 +0530,
91,0,91,0,159.15563569997903,,159.12870040000416,5,159.15563569997903,159.15563569997903,0.01640279998537153,160.67509009997593,[-0.2325],[-0.11875],[1],[0],[0],[1.5302879000082612],['target'],831797,001,2024-10-05_14h25.49.281,Visual.Search_priyanshiAU2220101,2024.1.5,None,2024-10-05 14h25.57.949701 +0530,
92,0,92,0,160.70783049997408,,160.67950809997274,5,160.70783049997408,160.70783049997408,0.01906830002553761,161.992335500021,[0.3025],[0.033125],[1],[0],[0],[1.2940655999700539],['target'],831797,001,2024-10-05_14h25.49.281,Visual.Search_priyanshiAU2220101,2024.1.5,None,2024-10-05 14h25.57.949701 +0530,
93,0,93,0,162.025249600003,,161.99735279998276,5,162.025249600003,162.025249600003,0.018641000031493604,163.059648800001,[0.425625],[0.18625],[1],[0],[0],[1.0441019999561831],['target'],831797,001,2024-10-05_14h25.49.281,Visual.Search_priyanshiAU2220101,2024.1.5,None,2024-10-05 14h25.57.949701 +0530,
94,0,94,0,163.0935628999723,,163.06416509998962,5,163.0935628999723,163.0935628999723,0.020997999992687255,164.92518249998102,[-0.42],[0.045625],[1],[0],[0],[1.840399399981834],['target'],831797,001,2024-10-05_14h25.49.281,Visual.Search_priyanshiAU2220101,2024.1.5,None,2024-10-05 14h25.57.949701 +0530,
95,0,95,0,164.97413779998897,,164.92890860000625,10,164.97413779998897,164.97413779998897,0.03151339996838942,167.5584017999936,[0.104375],[0.391875],[1],[0],[0],[2.598325500031933],['target'],831797,001,2024-10-05_14h25.49.281,Visual.Search_priyanshiAU2220101,2024.1.5,None,2024-10-05 14h25.57.949701 +0530,
96,0,96,0,167.5871613000054,,167.56159589998424,5,167.5871613000054,167.5871613000054,0.015140899980906397,168.75802299997304,[-0.13625],[0.3],[1],[0],[0],[1.1814870000234805],['target'],831797,001,2024-10-05_14h25.49.281,Visual.Search_priyanshiAU2220101,2024.1.5,None,2024-10-05 14h25.57.949701 +0530,
97,0,97,0,168.81436469999608,,168.7631631999975,10,168.81436469999608,168.81436469999608,0.03314760001376271,170.40937010000926,[-0.08875],[-0.456875],[1],[0],[0],[1.6135912999743596],['target'],831797,001,2024-10-05_14h25.49.281,Visual.Search_priyanshiAU2220101,2024.1.5,None,2024-10-05 14h25.57.949701 +0530,
98,0,98,0,170.4391522000078,,170.41453800001182,5,170.4391522000078,170.4391522000078,0.017461300012655556,171.92603189998772,[-0.496875],[0.42875],[1],[0],[0],[1.4947485000011511],['target'],831797,001,2024-10-05_14h25.49.281,Visual.Search_priyanshiAU2220101,2024.1.5,None,2024-10-05 14h25.57.949701 +0530,
99,0,99,0,171.98424179997528,,171.92976909998106,10,171.98424179997528,171.98424179997528,0.03407850000075996,173.69174769998062,[0.37],[-0.194375],[1],[0],[0],[1.7281045999843627],['target'],831797,001,2024-10-05_14h25.49.281,Visual.Search_priyanshiAU2220101,2024.1.5,None,2024-10-05 14h25.57.949701 +0530,
100,0,100,0,173.7425902999821,,173.69522230001166,10,173.7425902999821,173.7425902999821,0.03178929997375235,175.59152529999847,[0.304375],[-0.185625],[1],[0],[0],[1.8647695999825373],['target'],831797,001,2024-10-05_14h25.49.281,Visual.Search_priyanshiAU2220101,2024.1.5,None,2024-10-05 14h25.57.949701 +0530,
101,0,101,0,175.61596999998437,,175.5944250000175,5,175.61596999998437,175.61596999998437,0.014041799993719906,176.942327799974,[-0.180625],[-0.0025],[1],[0],[0],[1.3339989999658428],['target'],831797,001,2024-10-05_14h25.49.281,Visual.Search_priyanshiAU2220101,2024.1.5,None,2024-10-05 14h25.57.949701 +0530,
102,0,102,0,176.97512119996827,,176.94764299999224,5,176.97512119996827,176.97512119996827,0.01600559998769313,178.19195080001373,[-0.18875],[0.259375],[1],[0],[0],[1.229040400008671],['target'],831797,001,2024-10-05_14h25.49.281,Visual.Search_priyanshiAU2220101,2024.1.5,None,2024-10-05 14h25.57.949701 +0530,
103,0,103,0,178.22366540000075,,178.19567869999446,5,178.22366540000075,178.22366540000075,0.016911399958189577,179.77579749998404,[-0.438125],[0.140625],[1],[0],[0],[1.5634299000375904],['target'],831797,001,2024-10-05_14h25.49.281,Visual.Search_priyanshiAU2220101,2024.1.5,None,2024-10-05 14h25.57.949701 +0530,
104,0,104,0,179.8313055000035,,179.7813177999924,10,179.8313055000035,179.8313055000035,0.02987229998689145,181.20865490002325,[-0.20125],[0.34625],[1],[0],[0],[1.398174999980256],['target'],831797,001,2024-10-05_14h25.49.281,Visual.Search_priyanshiAU2220101,2024.1.5,None,2024-10-05 14h25.57.949701 +0530,
105,0,105,0,181.25176690000808,,181.21242809999967,10,181.25176690000808,181.25176690000808,0.028094499954022467,183.3081704999786,[0.384375],[-0.201875],[1],[0],[0],[2.0677521000034176],['target'],831797,001,2024-10-05_14h25.49.281,Visual.Search_priyanshiAU2220101,2024.1.5,None,2024-10-05 14h25.57.949701 +0530,
106,0,106,0,183.36084729997674,,183.31353189999936,10,183.36084729997674,183.36084729997674,0.03183689998695627,185.441188399971,[-0.15375],[0.061875],[1],[0],[0],[2.096510900009889],['target'],831797,001,2024-10-05_14h25.49.281,Visual.Search_priyanshiAU2220101,2024.1.5,None,2024-10-05 14h25.57.949701 +0530,
107,0,107,0,185.4898387999856,,185.4462690000073,10,185.4898387999856,185.4898387999856,0.031621300033293664,187.17473540001083,[0.163125],[-0.266875],[1],[0],[0],[1.697408700012602],[],831797,001,2024-10-05_14h25.49.281,Visual.Search_priyanshiAU2220101,2024.1.5,None,2024-10-05 14h25.57.949701 +0530,
108,0,108,0,187.20711000001756,,187.17987469997024,5,187.20711000001756,187.20711000001756,0.01717360003385693,188.6419214999769,[-0.095],[-0.115625],[1],[0],[0],[1.4455193000030704],['target'],831797,001,2024-10-05_14h25.49.281,Visual.Search_priyanshiAU2220101,2024.1.5,None,2024-10-05 14h25.57.949701 +0530,
109,0,109,0,188.67456479999237,,188.64553909999086,5,188.67456479999237,188.67456479999237,0.016274699999485165,190.42445920000318,[0.288125],[0.059375],[1],[0],[0],[1.762828000006266],['target'],831797,001,2024-10-05_14h25.49.281,Visual.Search_priyanshiAU2220101,2024.1.5,None,2024-10-05 14h25.57.949701 +0530,
110,0,110,0,190.4784908000147,,190.42994609999005,10,190.4784908000147,190.4784908000147,0.03261470003053546,192.05754700000398,[0.12625],[-0.13],[1],[0],[0],[1.5957052999874577],['target'],831797,001,2024-10-05_14h25.49.281,Visual.Search_priyanshiAU2220101,2024.1.5,None,2024-10-05 14h25.57.949701 +0530,
111,0,111,0,192.0876085999771,,192.06040989997564,5,192.0876085999771,192.0876085999771,0.013855800032615662,193.44120429997565,[-0.124375],[-0.330625],[1],[0],[0],[1.3670010000350885],['target'],831797,001,2024-10-05_14h25.49.281,Visual.Search_priyanshiAU2220101,2024.1.5,None,2024-10-05 14h25.57.949701 +0530,
112,0,112,0,193.47275339998305,,193.44460529997014,5,193.47275339998305,193.47275339998305,0.015876099991146475,195.25773249997292,[-0.129375],[-0.32375],[1],[0],[0],[1.7974714000010863],['target'],831797,001,2024-10-05_14h25.49.281,Visual.Search_priyanshiAU2220101,2024.1.5,None,2024-10-05 14h25.57.949701 +0530,
113,0,113,0,195.31366769998567,,195.2616387999733,10,195.31366769998567,195.31366769998567,0.03515579999657348,197.02407749998383,[0.165],[0.41],[1],[0],[0],[1.727491200028453],['target'],831797,001,2024-10-05_14h25.49.281,Visual.Search_priyanshiAU2220101,2024.1.5,None,2024-10-05 14h25.57.949701 +0530,
114,0,114,0,197.07525639998494,,197.0281004999997,10,197.07525639998494,197.07525639998494,0.030408999999053776,198.77522080001654,[-0.189375],[-0.2625],[1],[0],[0],[1.7171088000177406],['target'],831797,001,2024-10-05_14h25.49.281,Visual.Search_priyanshiAU2220101,2024.1.5,None,2024-10-05 14h25.57.949701 +0530,
115,0,115,0,198.80185499996878,,198.77888120000716,5,198.80185499996878,198.80185499996878,0.01602500001899898,200.19200039998395,[-0.143125],[0.08125],[1],[0],[0],[1.3971450999961235],[],831797,001,2024-10-05_14h25.49.281,Visual.Search_priyanshiAU2220101,2024.1.5,None,2024-10-05 14h25.57.949701 +0530,
116,0,116,0,200.21630819997517,,200.1951649999828,5,200.21630819997517,200.21630819997517,0.013258200022391975,201.64188269997248,[0.278125],[0.115],[1],[0],[0],[1.4336637000087649],['target'],831797,001,2024-10-05_14h25.49.281,Visual.Search_priyanshiAU2220101,2024.1.5,None,2024-10-05 14h25.57.949701 +0530,
117,0,117,0,201.677127700008,,201.64567419997184,5,201.677127700008,201.677127700008,0.022966900025494397,203.24168450001162,[0.269375],[-0.281875],[1],[0],[0],[1.5732123999623582],['target'],831797,001,2024-10-05_14h25.49.281,Visual.Search_priyanshiAU2220101,2024.1.5,None,2024-10-05 14h25.57.949701 +0530,
118,0,118,0,203.26746010000352,,203.2445392999798,5,203.26746010000352,203.26746010000352,0.014083200017921627,205.40721749997465,[-0.433125],[0.444375],[1],[0],[0],[2.1487603000132367],['target'],831797,001,2024-10-05_14h25.49.281,Visual.Search_priyanshiAU2220101,2024.1.5,None,2024-10-05 14h25.57.949701 +0530,
119,0,119,0,205.43486269999994,,205.41080999997212,5,205.43486269999994,205.43486269999994,0.01530960004311055,207.32384809997166,[0.35875],[0.285625],[1],[0],[0],[1.8979381999815814],['target'],831797,001,2024-10-05_14h25.49.281,Visual.Search_priyanshiAU2220101,2024.1.5,None,2024-10-05 14h25.57.949701 +0530,
120,0,120,0,207.35771100001875,,207.32920410000952,5,207.35771100001875,207.35771100001875,0.01777060003951192,209.29106209997553,[-0.085625],[0.198125],[1],[0],[0],[1.9446839999873191],['target'],831797,001,2024-10-05_14h25.49.281,Visual.Search_priyanshiAU2220101,2024.1.5,None,2024-10-05 14h25.57.949701 +0530,
121,0,121,0,209.32154520001495,,209.2957554999739,5,209.32154520001495,209.32154520001495,0.017135699978098273,210.65716760000214,[0.17625],[0.449375],[1],[0],[0],[1.3445532000041567],['target'],831797,001,2024-10-05_14h25.49.281,Visual.Search_priyanshiAU2220101,2024.1.5,None,2024-10-05 14h25.57.949701 +0530,
122,0,122,0,210.681205699977,,210.66002880001906,5,210.681205699977,210.681205699977,0.014196600008290261,212.72622319997754,[-0.365625],[-0.349375],[1],[0],[0],[2.0518028999795206],['target'],831797,001,2024-10-05_14h25.49.281,Visual.Search_priyanshiAU2220101,2024.1.5,None,2024-10-05 14h25.57.949701 +0530,
123,0,123,0,212.76708959997632,,212.73587259999476,5,212.76708959997632,212.76708959997632,0.025344100024085492,214.32355739997,[-0.36875],[-0.393125],[1],[0],[0],[1.5638156000059098],['target'],831797,001,2024-10-05_14h25.49.281,Visual.Search_priyanshiAU2220101,2024.1.5,None,2024-10-05 14h25.57.949701 +0530,
124,0,124,0,214.3718829000136,,214.32857559999684,10,214.3718829000136,214.3718829000136,0.032424299977719784,215.70698090002406,[0.03],[-0.19375],[1],[0],[0],[1.346597700030543],['target'],831797,001,2024-10-05_14h25.49.281,Visual.Search_priyanshiAU2220101,2024.1.5,None,2024-10-05 14h25.57.949701 +0530,
125,0,125,0,215.75589640002,,215.71089139999822,10,215.75589640002,215.75589640002,0.034486599965021014,217.95712899998762,[0.476875],[0.1125],[1],[0],[0],[2.2120034000254236],['target'],831797,001,2024-10-05_14h25.49.281,Visual.Search_priyanshiAU2220101,2024.1.5,None,2024-10-05 14h25.57.949701 +0530,
126,0,126,0,217.98924179997994,,217.96251889999257,5,217.98924179997994,217.98924179997994,0.01670229999581352,219.70726860000286,[-0.235],[0.293125],[1],[0],[0],[1.7286378999706358],['target'],831797,001,2024-10-05_14h25.49.281,Visual.Search_priyanshiAU2220101,2024.1.5,None,2024-10-05 14h25.57.949701 +0530,
127,0,127,0,219.73719519999577,,219.71151799999643,5,219.73719519999577,219.73719519999577,0.016472100047394633,221.07368249999126,[0.185],[0.324375],[1],[0],[0],[1.3458783999667503],['target'],831797,001,2024-10-05_14h25.49.281,Visual.Search_priyanshiAU2220101,2024.1.5,None,2024-10-05 14h25.57.949701 +0530,
128,0,128,0,221.102781100024,,221.0785593999899,5,221.102781100024,221.102781100024,0.015365100000053644,222.74132919998374,[0.285625],[0.45875],[1],[0],[0],[1.6477709999890067],['target'],831797,001,2024-10-05_14h25.49.281,Visual.Search_priyanshiAU2220101,2024.1.5,None,2024-10-05 14h25.57.949701 +0530,
129,0,129,0,222.79304359998787,,222.74499759997707,10,222.79304359998787,222.79304359998787,0.030147299985401332,224.5232026000158,[-0.461875],[0.139375],[1],[0],[0],[1.748467699973844],['target'],831797,001,2024-10-05_14h25.49.281,Visual.Search_priyanshiAU2220101,2024.1.5,None,2024-10-05 14h25.57.949701 +0530,
130,0,130,0,224.5528539000079,,224.5270625000121,5,224.5528539000079,224.5528539000079,0.01721499999985099,226.52467359998263,[0.104375],[-0.21875],[1],[0],[0],[1.9807076000142843],['target'],831797,001,2024-10-05_14h25.49.281,Visual.Search_priyanshiAU2220101,2024.1.5,None,2024-10-05 14h25.57.949701 +0530,
131,0,131,0,226.5627383000101,,226.52822560002096,5,226.5627383000101,226.5627383000101,0.023287100018933415,228.57331349997548,[-0.42375],[0.323125],[1],[0],[0],[2.0221302999998443],['target'],831797,001,2024-10-05_14h25.49.281,Visual.Search_priyanshiAU2220101,2024.1.5,None,2024-10-05 14h25.57.949701 +0530,
132,0,132,0,228.60171949997311,,228.57821379997768,5,228.60171949997311,228.60171949997311,0.016897200024686754,230.25717930000974,[0.210625],[0.2475],[1],[0],[0],[1.6626990999793634],['target'],831797,001,2024-10-05_14h25.49.281,Visual.Search_priyanshiAU2220101,2024.1.5,None,2024-10-05 14h25.57.949701 +0530,
133,0,133,0,230.3094956999994,,230.26084020000417,10,230.3094956999994,230.3094956999994,0.031615099986083806,231.95680430001812,[0.075],[-0.176875],[1],[0],[0],[1.664427399984561],['target'],831797,001,2024-10-05_14h25.49.281,Visual.Search_priyanshiAU2220101,2024.1.5,None,2024-10-05 14h25.57.949701 +0530,
134,0,134,0,231.9898252999992,,231.9609348999802,5,231.9898252999992,231.9898252999992,0.01835829997435212,233.17469369998435,[-0.280625],[0.089375],[1],[0],[0],[1.1956091999891214],['target'],831797,001,2024-10-05_14h25.49.281,Visual.Search_priyanshiAU2220101,2024.1.5,None,2024-10-05 14h25.57.949701 +0530,
135,0,135,0,233.20074080000632,,233.17872440000065,5,233.20074080000632,233.20074080000632,0.01525480003328994,235.6734922999749,[-0.35375],[0.475625],[1],[0],[0],[2.479716699977871],['target'],831797,001,2024-10-05_14h25.49.281,Visual.Search_priyanshiAU2220101,2024.1.5,None,2024-10-05 14h25.57.949701 +0530,
136,0,136,0,235.71286480000708,,235.67657459998736,10,235.71286480000708,235.71286480000708,0.024556700023822486,237.6398050999851,[0.395],[-0.274375],[1],[0],[0],[1.9386525000445545],['target'],831797,001,2024-10-05_14h25.49.281,Visual.Search_priyanshiAU2220101,2024.1.5,None,2024-10-05 14h25.57.949701 +0530,
137,0,137,0,237.66774579999037,,237.64368869998725,5,237.66774579999037,237.66774579999037,0.014907100005075336,239.35670100001153,[0.4975],[0.46],[1],[0],[0],[1.6984539999975823],['target'],831797,001,2024-10-05_14h25.49.281,Visual.Search_priyanshiAU2220101,2024.1.5,None,2024-10-05 14h25.57.949701 +0530,
138,0,138,0,239.40545550000388,,239.36040830001002,10,239.40545550000388,239.40545550000388,0.02776069997344166,240.95646989997476,[0.326875],[0.3775],[1],[0],[0],[1.5686016999534331],['target'],831797,001,2024-10-05_14h25.49.281,Visual.Search_priyanshiAU2220101,2024.1.5,None,2024-10-05 14h25.57.949701 +0530,
139,0,139,0,240.982569099986,,240.960139599978,5,240.982569099986,240.982569099986,0.014885400014463812,242.20715249999193,[0.340625],[0.0575],[1],[0],[0],[1.23243370000273],['target'],831797,001,2024-10-05_14h25.49.281,Visual.Search_priyanshiAU2220101,2024.1.5,None,2024-10-05 14h25.57.949701 +0530,
140,0,140,0,242.25163529999554,,242.21077880001394,10,242.25163529999554,242.25163529999554,0.028975999972317368,244.58925109996926,[0.29625],[-0.376875],[1],[0],[0],[2.3498482999857515],['target'],831797,001,2024-10-05_14h25.49.281,Visual.Search_priyanshiAU2220101,2024.1.5,None,2024-10-05 14h25.57.949701 +0530,
141,0,141,0,244.6410453999997,,244.59277240000665,10,244.6410453999997,244.6410453999997,0.029340499953832477,246.97275580000132,[-0.49125],[0.26375],[1],[0],[0],[2.3509683000156656],['target'],831797,001,2024-10-05_14h25.49.281,Visual.Search_priyanshiAU2220101,2024.1.5,None,2024-10-05 14h25.57.949701 +0530,
142,0,142,0,247.0254164999933,,246.97654499998316,10,247.0254164999933,247.0254164999933,0.028684499964583665,249.05683610000415,[-0.344375],[-0.115625],[1],[0],[0],[2.0520038999966346],['target'],831797,001,2024-10-05_14h25.49.281,Visual.Search_priyanshiAU2220101,2024.1.5,None,2024-10-05 14h25.57.949701 +0530,
143,0,143,0,249.08807040000102,,249.061554600019,5,249.08807040000102,249.08807040000102,0.017757800000254065,250.60655129997758,[-0.069375],[0.0525],[1],[0],[0],[1.5275983000174165],['target'],831797,001,2024-10-05_14h25.49.281,Visual.Search_priyanshiAU2220101,2024.1.5,None,2024-10-05 14h25.57.949701 +0530,
144,0,144,0,250.6367444000207,,250.61057379998965,5,250.6367444000207,250.6367444000207,0.015415500034578145,252.05682210001396,[-0.37875],[-0.338125],[1],[0],[0],[1.4312006999971345],[],831797,001,2024-10-05_14h25.49.281,Visual.Search_priyanshiAU2220101,2024.1.5,None,2024-10-05 14h25.57.949701 +0530,
145,0,145,0,252.11711330001708,,252.06041249999544,10,252.11711330001708,252.11711330001708,0.03960190003272146,253.92255909997039,[-0.27625],[0.43875],[1],[0],[0],[1.8228626999771222],['target'],831797,001,2024-10-05_14h25.49.281,Visual.Search_priyanshiAU2220101,2024.1.5,None,2024-10-05 14h25.57.949701 +0530,
146,0,146,0,253.96365320001496,,253.9255046999897,10,253.96365320001496,253.96365320001496,0.024990900012198836,256.18988459999673,[-0.080625],[-0.0625],[1],[0],[0],[2.239326599985361],['target'],831797,001,2024-10-05_14h25.49.281,Visual.Search_priyanshiAU2220101,2024.1.5,None,2024-10-05 14h25.57.949701 +0530,
147,0,147,0,256.21979639999336,,256.19271089998074,5,256.21979639999336,256.21979639999336,0.01570370001718402,257.6733623999753,[0.146875],[-0.25375],[1],[0],[0],[1.4648913000128232],['target'],831797,001,2024-10-05_14h25.49.281,Visual.Search_priyanshiAU2220101,2024.1.5,None,2024-10-05 14h25.57.949701 +0530,
148,0,148,0,257.70182939997176,,257.6761254000012,5,257.70182939997176,257.70182939997176,0.013397599977906793,259.173145400011,[0.436875],[0.388125],[1],[0],[0],[1.4838320999988355],['target'],831797,001,2024-10-05_14h25.49.281,Visual.Search_priyanshiAU2220101,2024.1.5,None,2024-10-05 14h25.57.949701 +0530,
149,0,149,0,259.2007333000074,,259.17676870001014,5,259.2007333000074,259.2007333000074,0.014991399948485196,261.2731991999899,[-0.19],[-0.445625],[1],[0],[0],[2.0814819000079297],['target'],831797,001,2024-10-05_14h25.49.281,Visual.Search_priyanshiAU2220101,2024.1.5,None,2024-10-05 14h25.57.949701 +0530,
150,0,150,0,261.3162977999891,,261.27751179999905,10,261.3162977999891,261.3162977999891,0.026879000011831522,262.93854850000935,[-0.16],[-0.256875],[1],[0],[0],[1.6347315000020899],['target'],831797,001,2024-10-05_14h25.49.281,Visual.Search_priyanshiAU2220101,2024.1.5,None,2024-10-05 14h25.57.949701 +0530,
151,0,151,0,262.96549690002576,,262.9421798000112,5,262.96549690002576,262.96549690002576,0.015361399971880019,264.55713490000926,[-0.35375],[-0.413125],[1],[0],[0],[1.599807900027372],['target'],831797,001,2024-10-05_14h25.49.281,Visual.Search_priyanshiAU2220101,2024.1.5,None,2024-10-05 14h25.57.949701 +0530,
152,0,152,0,264.5979253000114,,264.56119249999756,10,264.5979253000114,264.5979253000114,0.026888600026722997,266.3555722999736,[-0.435625],[0.341875],[1],[0],[0],[1.767771199985873],['target'],831797,001,2024-10-05_14h25.49.281,Visual.Search_priyanshiAU2220101,2024.1.5,None,2024-10-05 14h25.57.949701 +0530,
153,0,153,0,266.4031667999807,,266.35938699997496,10,266.4031667999807,266.4031667999807,0.02861989999655634,267.8727572999778,[0.200625],[-0.155625],[1],[0],[0],[1.4849786999984644],['target'],831797,001,2024-10-05_14h25.49.281,Visual.Search_priyanshiAU2220101,2024.1.5,None,2024-10-05 14h25.57.949701 +0530,
154,0,154,0,267.9151239999919,,267.8767333999858,10,267.9151239999919,267.9151239999919,0.025538099987898022,269.37324960000115,[-0.01375],[-0.46625],[1],[0],[0],[1.4714917999808677],['target'],831797,001,2024-10-05_14h25.49.281,Visual.Search_priyanshiAU2220101,2024.1.5,None,2024-10-05 14h25.57.949701 +0530,
155,0,155,0,269.40024819999235,,269.37687540001934,5,269.40024819999235,269.40024819999235,0.015263200039044023,270.6230488999863,[0.24125],[-0.034375],[1],[0],[0],[1.2312171999947168],['target'],831797,001,2024-10-05_14h25.49.281,Visual.Search_priyanshiAU2220101,2024.1.5,None,2024-10-05 14h25.57.949701 +0530,
156,0,156,0,270.67432370001916,,270.6267548999749,10,270.67432370001916,270.67432370001916,0.029391499992925674,272.3395167000126,[0.345],[-0.435],[1],[0],[0],[1.6836960999644361],['target'],831797,001,2024-10-05_14h25.49.281,Visual.Search_priyanshiAU2220101,2024.1.5,None,2024-10-05 14h25.57.949701 +0530,
157,0,157,0,272.3871598999831,,272.3432105000247,10,272.3871598999831,272.3871598999831,0.028548299975227565,274.28880420001224,[-0.4875],[0.15875],[1],[0],[0],[1.9173883000039496],[],831797,001,2024-10-05_14h25.49.281,Visual.Search_priyanshiAU2220101,2024.1.5,None,2024-10-05 14h25.57.949701 +0530,
158,0,158,0,274.34024390002014,,274.2925799000077,10,274.34024390002014,274.34024390002014,0.029141300008632243,276.4717733999714,[0.108125],[-0.27625],[1],[0],[0],[2.150371299998369],[],831797,001,2024-10-05_14h25.49.281,Visual.Search_priyanshiAU2220101,2024.1.5,None,2024-10-05 14h25.57.949701 +0530,
159,0,159,0,276.49831140000606,,276.47553779999726,5,276.49831140000606,276.49831140000606,0.015797099971678108,278.2388296999852,[-0.165625],[0.415625],[1],[0],[0],[1.7478538999566808],['target'],831797,001,2024-10-05_14h25.49.281,Visual.Search_priyanshiAU2220101,2024.1.5,None,2024-10-05 14h25.57.949701 +0530,
160,0,160,0,278.2683808999718,,278.2431432000012,5,278.2683808999718,278.2683808999718,0.01550939999287948,280.1718157000141,[0.290625],[-0.256875],[1],[0],[0],[1.913501700037159],['target'],831797,001,2024-10-05_14h25.49.281,Visual.Search_priyanshiAU2220101,2024.1.5,None,2024-10-05 14h25.57.949701 +0530,
161,0,161,0,280.22483919997467,,280.1753907999955,10,280.22483919997467,280.22483919997467,0.02841710002394393,281.77163869998185,[-0.3025],[-0.163125],[1],[0],[0],[1.568136100017],['target'],831797,001,2024-10-05_14h25.49.281,Visual.Search_priyanshiAU2220101,2024.1.5,None,2024-10-05 14h25.57.949701 +0530,
162,0,162,0,281.79867330001434,,281.7754705999978,5,281.79867330001434,281.79867330001434,0.01500730001134798,283.3225306000095,[-0.3825],[0.319375],[1],[0],[0],[1.5323803999926895],['target'],831797,001,2024-10-05_14h25.49.281,Visual.Search_priyanshiAU2220101,2024.1.5,None,2024-10-05 14h25.57.949701 +0530,
163,0,163,0,283.37513310002396,,283.32616890000645,10,283.37513310002396,283.37513310002396,0.028949700004886836,285.05477430002065,[-0.186875],[0.4375],[1],[0],[0],[1.7000336000346579],['target'],831797,001,2024-10-05_14h25.49.281,Visual.Search_priyanshiAU2220101,2024.1.5,None,2024-10-05 14h25.57.949701 +0530,
164,0,164,0,285.1053567000199,,285.0583673000219,10,285.1053567000199,285.1053567000199,0.032444799959193915,286.8888452000101,[-0.495625],[-0.39],[1],[0],[0],[1.7983545000315644],['target'],831797,001,2024-10-05_14h25.49.281,Visual.Search_priyanshiAU2220101,2024.1.5,None,2024-10-05 14h25.57.949701 +0530,
165,0,165,0,286.9341202999931,,286.8925177999772,10,286.9341202999931,286.9341202999931,0.02976250002393499,288.2730092999991,[-0.16125],[0.176875],[1],[0],[0],[1.3510046000010334],['target'],831797,001,2024-10-05_14h25.49.281,Visual.Search_priyanshiAU2220101,2024.1.5,None,2024-10-05 14h25.57.949701 +0530,
166,0,166,0,288.3082553999848,,288.27771330001997,5,288.3082553999848,288.3082553999848,0.01750359998550266,289.8894594999729,[0.0325],[0.243125],[1],[0],[0],[1.5946130999946035],['target'],831797,001,2024-10-05_14h25.49.281,Visual.Search_priyanshiAU2220101,2024.1.5,None,2024-10-05 14h25.57.949701 +0530,
167,0,167,0,289.93696690001525,,289.89227010001196,10,289.93696690001525,289.93696690001525,0.027957199956290424,291.78911130002234,[-0.403125],[-0.4175],[1],[0],[0],[1.8690462000085972],['target'],831797,001,2024-10-05_14h25.49.281,Visual.Search_priyanshiAU2220101,2024.1.5,None,2024-10-05 14h25.57.949701 +0530,
168,0,168,0,291.81566720001865,,291.792901000008,5,291.81566720001865,291.81566720001865,0.015992899949196726,293.0212964999955,[-0.2525],[0.085625],[1],[0],[0],[1.2127307000337169],['target'],831797,001,2024-10-05_14h25.49.281,Visual.Search_priyanshiAU2220101,2024.1.5,None,2024-10-05 14h25.57.949701 +0530,
169,0,169,0,293.050592900021,,293.0253313999856,5,293.050592900021,293.050592900021,0.01719570002751425,294.37118289998034,[-0.105],[0.066875],[1],[0],[0],[1.32886020001024],['target'],831797,001,2024-10-05_14h25.49.281,Visual.Search_priyanshiAU2220101,2024.1.5,None,2024-10-05 14h25.57.949701 +0530,
170,0,170,0,294.4011124999961,,294.37626839999575,5,294.4011124999961,294.4011124999961,0.01844160002656281,296.5223745999974,[0.413125],[-0.4175],[1],[0],[0],[2.128392100043129],['target'],831797,001,2024-10-05_14h25.49.281,Visual.Search_priyanshiAU2220101,2024.1.5,None,2024-10-05 14h25.57.949701 +0530,
171,0,171,0,296.5543648999883,,296.52601819997653,5,296.5543648999883,296.5543648999883,0.017883400025311857,297.87176710000494,[-0.005],[-0.420625],[1],[0],[0],[1.3282257999526337],['target'],831797,001,2024-10-05_14h25.49.281,Visual.Search_priyanshiAU2220101,2024.1.5,None,2024-10-05 14h25.57.949701 +0530,
172,0,172,0,297.91844799998216,,297.8753864999744,10,297.91844799998216,297.91844799998216,0.032408100028987974,299.17201430001296,[-0.158125],[-0.26625],[1],[0],[0],[1.2644083999912255],['target'],831797,001,2024-10-05_14h25.49.281,Visual.Search_priyanshiAU2220101,2024.1.5,None,2024-10-05 14h25.57.949701 +0530,
173,0,173,0,299.21928670001216,,299.17524579999736,10,299.21928670001216,299.21928670001216,0.02832400001352653,300.53802819998236,[-0.336875],[-0.293125],[1],[0],[0],[1.3345581999747083],['target'],831797,001,2024-10-05_14h25.49.281,Visual.Search_priyanshiAU2220101,2024.1.5,None,2024-10-05 14h25.57.949701 +0530,
174,0,174,0,300.582552900014,,300.5415946000139,10,300.582552900014,300.582552900014,0.02641859999857843,302.87118159997044,[0.431875],[0.039375],[1],[0],[0],[2.3034540000371635],['target'],831797,001,2024-10-05_14h25.49.281,Visual.Search_priyanshiAU2220101,2024.1.5,None,2024-10-05 14h25.57.949701 +0530,
175,0,175,0,302.89726920000976,,302.8740361999953,5,302.89726920000976,302.89726920000976,0.014093999983742833,305.27167470002314,[-0.421875],[0.308125],[1],[0],[0],[2.383520200033672],['target'],831797,001,2024-10-05_14h25.49.281,Visual.Search_priyanshiAU2220101,2024.1.5,None,2024-10-05 14h25.57.949701 +0530,
176,0,176,0,305.30532719998155,,305.2771351999836,5,305.30532719998155,305.30532719998155,0.021457499999087304,306.83795600000303,[-0.00375],[0.346875],[1],[0],[0],[1.540206300036516],['target'],831797,001,2024-10-05_14h25.49.281,Visual.Search_priyanshiAU2220101,2024.1.5,None,2024-10-05 14h25.57.949701 +0530,
177,0,177,0,306.86520529998234,,306.8407535000006,5,306.86520529998234,306.86520529998234,0.015183800016529858,308.2046884999727,[-0.373125],[0.0925],[1],[0],[0],[1.3487688999739476],['target'],831797,001,2024-10-05_14h25.49.281,Visual.Search_priyanshiAU2220101,2024.1.5,None,2024-10-05 14h25.57.949701 +0530,
178,0,178,0,308.25364790001186,,308.2075639999821,10,308.25364790001186,308.25364790001186,0.02774429996497929,309.67126939998707,[0.185],[0.128125],[1],[0],[0],[1.4361021000077017],['target'],831797,001,2024-10-05_14h25.49.281,Visual.Search_priyanshiAU2220101,2024.1.5,None,2024-10-05 14h25.57.949701 +0530,
179,0,179,0,309.7204974999768,,309.6753843000042,10,309.7204974999768,309.7204974999768,0.03538549999939278,311.5208397000097,[-0.205625],[-0.315625],[1],[0],[0],[1.8105497000506148],['target'],831797,001,2024-10-05_14h25.49.281,Visual.Search_priyanshiAU2220101,2024.1.5,None,2024-10-05 14h25.57.949701 +0530,
180,0,180,0,311.54672819998814,,311.5236844000174,5,311.54672819998814,311.54672819998814,0.013477600004989654,312.90475729998434,[-0.3825],[0.04375],[1],[0],[0],[1.3676541000022553],['target'],831797,001,2024-10-05_14h25.49.281,Visual.Search_priyanshiAU2220101,2024.1.5,None,2024-10-05 14h25.57.949701 +0530,
181,0,181,0,312.9374270000262,,312.9086185999913,5,312.9374270000262,312.9374270000262,0.015918900026008487,314.8868517000228,[-0.145625],[0.465],[1],[0],[0],[1.9628678999724798],['target'],831797,001,2024-10-05_14h25.49.281,Visual.Search_priyanshiAU2220101,2024.1.5,None,2024-10-05 14h25.57.949701 +0530,
182,0,182,0,314.93808609998086,,314.8905930999899,10,314.93808609998086,314.93808609998086,0.031769499997608364,316.8540931000025,[0.214375],[0.281875],[1],[0],[0],[1.9319640999892727],['target'],831797,001,2024-10-05_14h25.49.281,Visual.Search_priyanshiAU2220101,2024.1.5,None,2024-10-05 14h25.57.949701 +0530,
183,0,183,0,316.88059790001716,,316.8569702000241,5,316.88059790001716,316.88059790001716,0.014148699992801994,318.13792349997675,[-0.16875],[0.34875],[1],[0],[0],[1.2668846000451595],['target'],831797,001,2024-10-05_14h25.49.281,Visual.Search_priyanshiAU2220101,2024.1.5,None,2024-10-05 14h25.57.949701 +0530,
184,0,184,0,318.1946277000243,,318.14307779999217,10,318.1946277000243,318.1946277000243,0.03112090000649914,319.7049112999812,[-0.173125],[-0.31875],[1],[0],[0],[1.5311069000163116],['target'],831797,001,2024-10-05_14h25.49.281,Visual.Search_priyanshiAU2220101,2024.1.5,None,2024-10-05 14h25.57.949701 +0530,
185,0,185,0,319.7317568999715,,319.70909860002575,5,319.7317568999715,319.7317568999715,0.01406780001707375,321.15477750002174,[0.02375],[0.205625],[1],[0],[0],[1.4319347999989986],['target'],831797,001,2024-10-05_14h25.49.281,Visual.Search_priyanshiAU2220101,2024.1.5,None,2024-10-05 14h25.57.949701 +0530,
186,0,186,0,321.1841122999904,,321.1584020999726,5,321.1841122999904,321.1841122999904,0.014980100037064403,323.40473760000896,[0.34375],[-0.34625],[1],[0],[0],[2.231681000033859],['target'],831797,001,2024-10-05_14h25.49.281,Visual.Search_priyanshiAU2220101,2024.1.5,None,2024-10-05 14h25.57.949701 +0530,
187,0,187,0,323.451286000025,,323.40843219996896,10,323.451286000025,323.451286000025,0.029351099976338446,325.1040668999776,[-0.13875],[0.368125],[1],[0],[0],[1.6665274999686517],['target'],831797,001,2024-10-05_14h25.49.281,Visual.Search_priyanshiAU2220101,2024.1.5,None,2024-10-05 14h25.57.949701 +0530,
188,0,188,0,325.13738329999615,,325.10775550000835,5,325.13738329999615,325.13738329999615,0.015856900019571185,326.85457319999114,[-0.303125],[-0.47875],[1],[0],[0],[1.7310466999770142],['target'],831797,001,2024-10-05_14h25.49.281,Visual.Search_priyanshiAU2220101,2024.1.5,None,2024-10-05 14h25.57.949701 +0530,
189,0,189,0,326.9027020999929,,326.85810680000577,10,326.9027020999929,326.9027020999929,0.02791629999410361,328.52123660000507,[0.021875],[0.15875],[1],[0],[0],[1.6351689000148326],['target'],831797,001,2024-10-05_14h25.49.281,Visual.Search_priyanshiAU2220101,2024.1.5,None,2024-10-05 14h25.57.949701 +0530,
190,0,190,0,328.55478619999485,,328.5249018999748,5,328.55478619999485,328.55478619999485,0.016407800023443997,330.2715922999778,[0.239375],[-0.114375],[1],[0],[0],[1.7307921999599785],['target'],831797,001,2024-10-05_14h25.49.281,Visual.Search_priyanshiAU2220101,2024.1.5,None,2024-10-05 14h25.57.949701 +0530,
191,0,191,0,330.30040439998265,,330.2752317999839,5,330.30040439998265,330.30040439998265,0.015247399976942688,331.30368979997,[0.19],[-0.109375],[1],[0],[0],[1.0136041999794543],['target'],831797,001,2024-10-05_14h25.49.281,Visual.Search_priyanshiAU2220101,2024.1.5,None,2024-10-05 14h25.57.949701 +0530,
192,0,192,0,331.3327168999822,,331.3073095,5,331.3327168999822,331.3327168999822,0.015038600016850978,333.1037944999989,[-0.093125],[-0.40375],[1],[0],[0],[1.7817765000509098],['target'],831797,001,2024-10-05_14h25.49.281,Visual.Search_priyanshiAU2220101,2024.1.5,None,2024-10-05 14h25.57.949701 +0530,
193,0,193,0,333.1406511000241,,333.10748930001864,5,333.1406511000241,333.1406511000241,0.015169300022535026,334.6881882000016,[0.141875],[-0.408125],[1],[0],[0],[1.5654322000336833],['target'],831797,001,2024-10-05_14h25.49.281,Visual.Search_priyanshiAU2220101,2024.1.5,None,2024-10-05 14h25.57.949701 +0530,
194,0,194,0,334.7202153999824,,334.6926168000209,5,334.7202153999824,334.7202153999824,0.01412860001437366,336.0042194999987,[-0.0625],[0.338125],[1],[0],[0],[1.2978964999783784],['target'],831797,001,2024-10-05_14h25.49.281,Visual.Search_priyanshiAU2220101,2024.1.5,None,2024-10-05 14h25.57.949701 +0530,
195,0,195,0,336.03450389998034,,336.0079017999815,5,336.03450389998034,336.03450389998034,0.015966499981004745,337.57083500002045,[-0.39125],[-0.19375],[1],[0],[0],[1.5472599000204355],['target'],831797,001,2024-10-05_14h25.49.281,Visual.Search_priyanshiAU2220101,2024.1.5,None,2024-10-05 14h25.57.949701 +0530,
196,0,196,0,337.6251355999848,,337.5746505999705,10,337.6251355999848,337.6251355999848,0.029214000038336962,340.2699538000161,[-0.0175],[0.48375],[1],[0],[0],[2.6665128000313416],['target'],831797,001,2024-10-05_14h25.49.281,Visual.Search_priyanshiAU2220101,2024.1.5,None,2024-10-05 14h25.57.949701 +0530,
197,0,197,0,340.3203336999868,,340.27361670002574,10,340.3203336999868,340.3203336999868,0.028401800023857504,341.50388329999987,[-0.186875],[0.4325],[1],[0],[0],[1.202023799996823],['target'],831797,001,2024-10-05_14h25.49.281,Visual.Search_priyanshiAU2220101,2024.1.5,None,2024-10-05 14h25.57.949701 +0530,
198,0,198,0,341.55066240002634,,341.50678519997746,10,341.55066240002634,341.55066240002634,0.02808220003498718,342.78709840000374,[0.1675],[0.3625],[1],[0],[0],[1.2523509999737144],['target'],831797,001,2024-10-05_14h25.49.281,Visual.Search_priyanshiAU2220101,2024.1.5,None,2024-10-05 14h25.57.949701 +0530,
199,0,199,0,342.8351513000089,,342.78997719998006,10,342.8351513000089,342.8351513000089,0.028921500022988766,345.00439429999096,[0.04625],[-0.274375],[1],[0],[0],[2.185656000045128],['target'],831797,001,2024-10-05_14h25.49.281,Visual.Search_priyanshiAU2220101,2024.1.5,None,2024-10-05 14h25.57.949701 +0530,
