trials.thisRepN,trials.thisTrialN,trials.thisN,trials.thisIndex,thisRow.t,notes,trial.started,num_distr,fixation.started,target.started,mouse.started,trial.stopped,mouse.x,mouse.y,mouse.leftButton,mouse.midButton,mouse.rightButton,mouse.time,mouse.clicked_name,participant,session,date,expName,psychopyVersion,frameRate,expStart,
0,0,0,0,0.02584800001932308,,0.003861500008497387,5,0.02584800001932308,0.02584800001932308,0.018277600000146776,2.016475400014315,[0.1775],[-0.475625],[1],[0],[0],[1.997170900052879],['target'],292999,001,2024-10-05_14h36.16.451,Visual.Search_priyanshiAU2220101,2024.1.5,None,2024-10-05 14h36.24.601103 +0530,
1,0,1,0,2.0501644000178203,,2.0212478000321425,10,2.0501644000178203,2.0501644000178203,0.020922399999108166,3.3837594999931753,[0.25125],[-0.17125],[1],[0],[0],[1.3418828999856487],['target'],292999,001,2024-10-05_14h36.16.451,Visual.Search_priyanshiAU2220101,2024.1.5,None,2024-10-05 14h36.24.601103 +0530,
2,0,2,0,3.4150816000183113,,3.3865101999836043,10,3.4150816000183113,3.4150816000183113,0.02033339999616146,5.033972100005485,[-0.473125],[-0.00625],[1],[0],[0],[1.627241799957119],['target'],292999,001,2024-10-05_14h36.16.451,Visual.Search_priyanshiAU2220101,2024.1.5,None,2024-10-05 14h36.24.601103 +0530,
3,0,3,0,5.063763300015125,,5.036229400022421,10,5.063763300015125,5.063763300015125,0.019984300015494227,6.717356599983759,[-0.0975],[0.095625],[1],[0],[0],[1.6612118000048213],['target'],292999,001,2024-10-05_14h36.16.451,Visual.Search_priyanshiAU2220101,2024.1.5,None,2024-10-05 14h36.24.601103 +0530,
4,0,4,0,6.750199300004169,,6.720051900018007,10,6.750199300004169,6.750199300004169,0.022118299966678023,8.166134700004477,[-0.39875],[0.05125],[1],[0],[0],[1.4241130000445992],['target'],292999,001,2024-10-05_14h36.16.451,Visual.Search_priyanshiAU2220101,2024.1.5,None,2024-10-05 14h36.24.601103 +0530,
5,0,5,0,8.199754100001883,,8.168834600015543,10,8.199754100001883,8.199754100001883,0.022715000028256327,9.94922080001561,[-0.053125],[-0.243125],[1],[0],[0],[1.757805700006429],['target'],292999,001,2024-10-05_14h36.16.451,Visual.Search_priyanshiAU2220101,2024.1.5,None,2024-10-05 14h36.24.601103 +0530,
6,0,6,0,9.979435799992643,,9.951429100008681,10,9.979435799992643,9.979435799992643,0.0202609000261873,12.450455099984538,[0.3325],[0.480625],[1],[0],[0],[2.478823999990709],['target'],292999,001,2024-10-05_14h36.16.451,Visual.Search_priyanshiAU2220101,2024.1.5,None,2024-10-05 14h36.24.601103 +0530,
7,0,7,0,12.481426200014539,,12.45269930001814,10,12.481426200014539,12.481426200014539,0.020177300029899925,13.81624339998234,[0.1],[0.205],[1],[0],[0],[1.3434689000132494],['target'],292999,001,2024-10-05_14h36.16.451,Visual.Search_priyanshiAU2220101,2024.1.5,None,2024-10-05 14h36.24.601103 +0530,
8,0,8,0,13.845913400000427,,13.818452799983788,10,13.845913400000427,13.845913400000427,0.019916100020054728,15.734180900035426,[-0.405],[0.391875],[1],[0],[0],[1.8958474000100978],['target'],292999,001,2024-10-05_14h36.16.451,Visual.Search_priyanshiAU2220101,2024.1.5,None,2024-10-05 14h36.24.601103 +0530,
9,0,9,0,15.764040799986105,,15.736360099981539,10,15.764040799986105,15.764040799986105,0.02025190001586452,17.749483500025235,[0.415625],[0.426875],[1],[0],[0],[1.9928138999966905],['target'],292999,001,2024-10-05_14h36.16.451,Visual.Search_priyanshiAU2220101,2024.1.5,None,2024-10-05 14h36.24.601103 +0530,
10,0,10,0,17.78111630002968,,17.7532152000349,10,17.78111630002968,17.78111630002968,0.020458300015889108,19.03254540002672,[0.035],[0.206875],[1],[0],[0],[1.2592514000134543],['target'],292999,001,2024-10-05_14h36.16.451,Visual.Search_priyanshiAU2220101,2024.1.5,None,2024-10-05 14h36.24.601103 +0530,
11,0,11,0,19.050258500035852,,19.034731100022327,5,19.050258500035852,19.050258500035852,0.010231100022792816,21.000462700030766,[0.500625],[0.181875],[1],[0],[0],[1.9553503000061028],['target'],292999,001,2024-10-05_14h36.16.451,Visual.Search_priyanshiAU2220101,2024.1.5,None,2024-10-05 14h36.24.601103 +0530,
12,0,12,0,21.019880200037733,,21.003665300027933,5,21.019880200037733,21.019880200037733,0.010699499980546534,22.916549400018994,[0.326875],[-0.19625],[1],[0],[0],[1.9022988000069745],['target'],292999,001,2024-10-05_14h36.16.451,Visual.Search_priyanshiAU2220101,2024.1.5,None,2024-10-05 14h36.24.601103 +0530,
13,0,13,0,22.94801460002782,,22.919428499997593,10,22.94801460002782,22.94801460002782,0.02005950000602752,24.866024799994193,[-0.441875],[0.240625],[1],[0],[0],[1.9266682000015862],['target'],292999,001,2024-10-05_14h36.16.451,Visual.Search_priyanshiAU2220101,2024.1.5,None,2024-10-05 14h36.24.601103 +0530,
14,0,14,0,24.89818070002366,,24.86822000000393,10,24.89818070002366,24.89818070002366,0.020003600046038628,27.7177953000064,[0.09375],[-0.4675],[1],[0],[0],[2.829720499983523],['target'],292999,001,2024-10-05_14h36.16.451,Visual.Search_priyanshiAU2220101,2024.1.5,None,2024-10-05 14h36.24.601103 +0530,
15,0,15,0,27.74879859999055,,27.720147499989253,10,27.74879859999055,27.74879859999055,0.020093999977689236,29.266047200013418,[-0.1],[-0.089375],[1],[0],[0],[1.5259380000061356],['target'],292999,001,2024-10-05_14h36.16.451,Visual.Search_priyanshiAU2220101,2024.1.5,None,2024-10-05 14h36.24.601103 +0530,
16,0,16,0,29.30368070001714,,29.268305100034922,10,29.30368070001714,29.30368070001714,0.02398130000801757,31.11552789999405,[-0.0925],[-0.475625],[1],[0],[0],[1.823246999992989],['target'],292999,001,2024-10-05_14h36.16.451,Visual.Search_priyanshiAU2220101,2024.1.5,None,2024-10-05 14h36.24.601103 +0530,
17,0,17,0,31.137921000015922,,31.118287299992517,5,31.137921000015922,31.137921000015922,0.011781000008340925,32.93215519998921,[0.25375],[0.0125],[1],[0],[0],[1.802188000001479],['target'],292999,001,2024-10-05_14h36.16.451,Visual.Search_priyanshiAU2220101,2024.1.5,None,2024-10-05 14h36.24.601103 +0530,
18,0,18,0,32.96525080001447,,32.93479880003724,10,32.96525080001447,32.96525080001447,0.02009970002109185,34.48230730002979,[-0.273125],[-0.13375],[1],[0],[0],[1.527599899971392],['target'],292999,001,2024-10-05_14h36.16.451,Visual.Search_priyanshiAU2220101,2024.1.5,None,2024-10-05 14h36.24.601103 +0530,
19,0,19,0,34.502073400013614,,34.48457790003158,5,34.502073400013614,34.502073400013614,0.010601299989502877,36.465325900004245,[0.005625],[0.481875],[1],[0],[0],[1.9702267000102438],['target'],292999,001,2024-10-05_14h36.16.451,Visual.Search_priyanshiAU2220101,2024.1.5,None,2024-10-05 14h36.24.601103 +0530,
20,0,20,0,36.49546609999379,,36.46749200002523,5,36.49546609999379,36.49546609999379,0.020925400021951646,38.18283900001552,[0.43],[0.21875],[1],[0],[0],[1.6943873999989592],['target'],292999,001,2024-10-05_14h36.16.451,Visual.Search_priyanshiAU2220101,2024.1.5,None,2024-10-05 14h36.24.601103 +0530,
21,0,21,0,38.2151281000115,,38.185237400000915,10,38.2151281000115,38.2151281000115,0.020353200030513108,40.56522659998154,[0.449375],[-0.170625],[1],[0],[0],[2.3596698000328615],['target'],292999,001,2024-10-05_14h36.16.451,Visual.Search_priyanshiAU2220101,2024.1.5,None,2024-10-05 14h36.24.601103 +0530,
22,0,22,0,40.58445920003578,,40.56811839999864,5,40.58445920003578,40.58445920003578,0.010346800030674785,42.14851400000043,[-0.149375],[-0.109375],[1],[0],[0],[1.570170600025449],['target'],292999,001,2024-10-05_14h36.16.451,Visual.Search_priyanshiAU2220101,2024.1.5,None,2024-10-05 14h36.24.601103 +0530,
23,0,23,0,42.16684780002106,,42.15086739999242,5,42.16684780002106,42.16684780002106,0.010473800008185208,44.398532600025646,[0.244375],[-0.465],[1],[0],[0],[2.2373302999767475],['target'],292999,001,2024-10-05_14h36.16.451,Visual.Search_priyanshiAU2220101,2024.1.5,None,2024-10-05 14h36.24.601103 +0530,
24,0,24,0,44.43596640002215,,44.40107319998788,10,44.43596640002215,44.43596640002215,0.023878600040916353,46.06464430002961,[-0.2075],[-0.28875],[1],[0],[0],[1.639849699975457],['target'],292999,001,2024-10-05_14h36.16.451,Visual.Search_priyanshiAU2220101,2024.1.5,None,2024-10-05 14h36.24.601103 +0530,
25,0,25,0,46.116953400021885,,46.069354100036435,10,46.116953400021885,46.116953400021885,0.033370900026056916,47.96475670003565,[-0.036875],[0.279375],[1],[0],[0],[1.8628541000070982],['target'],292999,001,2024-10-05_14h36.16.451,Visual.Search_priyanshiAU2220101,2024.1.5,None,2024-10-05 14h36.24.601103 +0530,
26,0,26,0,47.99685719999252,,47.9671309000114,10,47.99685719999252,47.99685719999252,0.020604999968782067,49.58282519999193,[0.138125],[0.214375],[1],[0],[0],[1.5952398999943398],['target'],292999,001,2024-10-05_14h36.16.451,Visual.Search_priyanshiAU2220101,2024.1.5,None,2024-10-05 14h36.24.601103 +0530,
27,0,27,0,49.67750749998959,,49.58509569999296,10,49.67750749998959,49.67750749998959,0.08025840000482276,51.99827849998837,[-0.3875],[0.250625],[1],[0],[0],[2.33302919997368],['target'],292999,001,2024-10-05_14h36.16.451,Visual.Search_priyanshiAU2220101,2024.1.5,None,2024-10-05 14h36.24.601103 +0530,
28,0,28,0,52.03787800000282,,52.00110200000927,10,52.03787800000282,52.03787800000282,0.02647340000839904,54.365845200023614,[-0.164375],[-0.326875],[1],[0],[0],[2.3383688000030816],['target'],292999,001,2024-10-05_14h36.16.451,Visual.Search_priyanshiAU2220101,2024.1.5,None,2024-10-05 14h36.24.601103 +0530,
29,0,29,0,54.406704500026535,,54.369165599986445,10,54.406704500026535,54.406704500026535,0.02773890004027635,55.9153462999966,[0.086875],[-0.208125],[1],[0],[0],[1.5187512999982573],['target'],292999,001,2024-10-05_14h36.16.451,Visual.Search_priyanshiAU2220101,2024.1.5,None,2024-10-05 14h36.24.601103 +0530,
30,0,30,0,55.941093700006604,,55.91988790000323,5,55.941093700006604,55.941093700006604,0.016191299946513027,57.61508800002048,[-0.235625],[-0.369375],[1],[0],[0],[1.6796660000109114],['target'],292999,001,2024-10-05_14h36.16.451,Visual.Search_priyanshiAU2220101,2024.1.5,None,2024-10-05 14h36.24.601103 +0530,
31,0,31,0,57.653188100026455,,57.618510900007095,10,57.653188100026455,57.653188100026455,0.025311200006399304,59.36521630000789,[0.099375],[0.050625],[1],[0],[0],[1.721472300007008],['target'],292999,001,2024-10-05_14h36.16.451,Visual.Search_priyanshiAU2220101,2024.1.5,None,2024-10-05 14h36.24.601103 +0530,
32,0,32,0,59.399564300023485,,59.36755700001959,10,59.399564300023485,59.399564300023485,0.022625999990850687,61.13167189998785,[-0.188125],[0.003125],[1],[0],[0],[1.7415324000176042],['target'],292999,001,2024-10-05_14h36.16.451,Visual.Search_priyanshiAU2220101,2024.1.5,None,2024-10-05 14h36.24.601103 +0530,
33,0,33,0,61.150625100010075,,61.13399960001698,5,61.150625100010075,61.150625100010075,0.010175200004596263,62.84839120000834,[0.486875],[0.240625],[1],[0],[0],[1.7043191000120714],['target'],292999,001,2024-10-05_14h36.16.451,Visual.Search_priyanshiAU2220101,2024.1.5,None,2024-10-05 14h36.24.601103 +0530,
34,0,34,0,62.86682250001468,,62.8506051999866,5,62.86682250001468,62.86682250001468,0.01004530000500381,64.16456350003136,[0.058125],[-0.194375],[1],[0],[0],[1.3040883000358008],['target'],292999,001,2024-10-05_14h36.16.451,Visual.Search_priyanshiAU2220101,2024.1.5,None,2024-10-05 14h36.24.601103 +0530,
35,0,35,0,64.18303850002121,,64.16691610001726,5,64.18303850002121,64.18303850002121,0.011099900002591312,66.13168829999631,[-0.228125],[0.37375],[1],[0],[0],[1.953858199995011],['target'],292999,001,2024-10-05_14h36.16.451,Visual.Search_priyanshiAU2220101,2024.1.5,None,2024-10-05 14h36.24.601103 +0530,
36,0,36,0,66.15408910001861,,66.13414750003722,5,66.15408910001861,66.15408910001861,0.012494599970523268,68.08160939998925,[-0.0525],[-0.271875],[1],[0],[0],[1.9351931000128388],['target'],292999,001,2024-10-05_14h36.16.451,Visual.Search_priyanshiAU2220101,2024.1.5,None,2024-10-05 14h36.24.601103 +0530,
37,0,37,0,68.1198656000197,,68.08403050003108,10,68.1198656000197,68.1198656000197,0.025712199974805117,70.0992570000235,[-0.30375],[0.09625],[1],[0],[0],[1.989563100039959],['target'],292999,001,2024-10-05_14h36.16.451,Visual.Search_priyanshiAU2220101,2024.1.5,None,2024-10-05 14h36.24.601103 +0530,
38,0,38,0,70.13445160002448,,70.1018616000074,10,70.13445160002448,70.13445160002448,0.023193700006231666,72.0146949000191,[-0.055625],[0.110625],[1],[0],[0],[1.8898610000032932],['target'],292999,001,2024-10-05_14h36.16.451,Visual.Search_priyanshiAU2220101,2024.1.5,None,2024-10-05 14h36.24.601103 +0530,
39,0,39,0,72.04793509998126,,72.01695200003451,10,72.04793509998126,72.04793509998126,0.022352300002239645,73.44785719999345,[-0.01125],[0.095],[1],[0],[0],[1.4085759000154212],['target'],292999,001,2024-10-05_14h36.16.451,Visual.Search_priyanshiAU2220101,2024.1.5,None,2024-10-05 14h36.24.601103 +0530,
40,0,40,0,73.46936960000312,,73.45029559999239,5,73.46936960000312,73.46936960000312,0.011647200037259609,74.86512540001422,[-0.321875],[-0.140625],[1],[0],[0],[1.4032743999850936],['target'],292999,001,2024-10-05_14h36.16.451,Visual.Search_priyanshiAU2220101,2024.1.5,None,2024-10-05 14h36.24.601103 +0530,
41,0,41,0,74.88601469999412,,74.868251900014,5,74.88601469999412,74.88601469999412,0.012946599978022277,76.68053340003826,[0.035625],[0.28375],[1],[0],[0],[1.7996603000210598],['target'],292999,001,2024-10-05_14h36.16.451,Visual.Search_priyanshiAU2220101,2024.1.5,None,2024-10-05 14h36.24.601103 +0530,
42,0,42,0,76.701731499983,,76.68281410000054,5,76.701731499983,76.701731499983,0.011289999994914979,78.56473889999324,[-0.035625],[-0.413125],[1],[0],[0],[1.8706206000060774],['target'],292999,001,2024-10-05_14h36.16.451,Visual.Search_priyanshiAU2220101,2024.1.5,None,2024-10-05 14h36.24.601103 +0530,
43,0,43,0,78.59035210002912,,78.56955569999991,5,78.59035210002912,78.59035210002912,0.01364419999299571,80.24757260002661,[0.0175],[0.0675],[1],[0],[0],[1.6649001999758184],['target'],292999,001,2024-10-05_14h36.16.451,Visual.Search_priyanshiAU2220101,2024.1.5,None,2024-10-05 14h36.24.601103 +0530,
44,0,44,0,80.28351700003259,,80.25062850001268,10,80.28351700003259,80.28351700003259,0.02089350001187995,82.34719509998104,[-0.470625],[0.3725],[1],[0],[0],[2.075811699964106],['target'],292999,001,2024-10-05_14h36.16.451,Visual.Search_priyanshiAU2220101,2024.1.5,None,2024-10-05 14h36.24.601103 +0530,
45,0,45,0,82.38051430002088,,82.34942470001988,10,82.38051430002088,82.38051430002088,0.021825200004968792,84.21402650000528,[-0.463125],[-0.30375],[1],[0],[0],[1.842842899961397],['target'],292999,001,2024-10-05_14h36.16.451,Visual.Search_priyanshiAU2220101,2024.1.5,None,2024-10-05 14h36.24.601103 +0530,
46,0,46,0,84.24567109998316,,84.21621839998988,10,84.24567109998316,84.24567109998316,0.020144500012975186,86.23079130001133,[0.144375],[-0.14125],[1],[0],[0],[1.9945016000419855],['target'],292999,001,2024-10-05_14h36.16.451,Visual.Search_priyanshiAU2220101,2024.1.5,None,2024-10-05 14h36.24.601103 +0530,
47,0,47,0,86.24969979998423,,86.2329727000324,5,86.24969979998423,86.24969979998423,0.010281399998348206,88.21531210001558,[0.500625],[0.244375],[1],[0],[0],[1.972036199993454],['target'],292999,001,2024-10-05_14h36.16.451,Visual.Search_priyanshiAU2220101,2024.1.5,None,2024-10-05 14h36.24.601103 +0530,
48,0,48,0,88.2353146999958,,88.21752860001288,5,88.2353146999958,88.2353146999958,0.011128099984489381,89.54744880000362,[0.26125],[0.32875],[1],[0],[0],[1.3188308999524452],['target'],292999,001,2024-10-05_14h36.16.451,Visual.Search_priyanshiAU2220101,2024.1.5,None,2024-10-05 14h36.24.601103 +0530,
49,0,49,0,89.56636490003439,,89.54984410002362,5,89.56636490003439,89.56636490003439,0.011176600004546344,91.53121520002605,[-0.4425],[-0.4625],[1],[0],[0],[1.9702421000110917],['target'],292999,001,2024-10-05_14h36.16.451,Visual.Search_priyanshiAU2220101,2024.1.5,None,2024-10-05 14h36.24.601103 +0530,
50,0,50,0,91.57456350000575,,91.53517960000318,10,91.57456350000575,91.57456350000575,0.02653239999199286,93.33031140000094,[0.210625],[0.078125],[1],[0],[0],[1.7689573999959975],['target'],292999,001,2024-10-05_14h36.16.451,Visual.Search_priyanshiAU2220101,2024.1.5,None,2024-10-05 14h36.24.601103 +0530,
51,0,51,0,93.35286630003247,,93.33270070003346,5,93.35286630003247,93.35286630003247,0.01408270001411438,95.06350220000604,[0.0175],[-0.184375],[1],[0],[0],[1.7169175000162795],['target'],292999,001,2024-10-05_14h36.16.451,Visual.Search_priyanshiAU2220101,2024.1.5,None,2024-10-05 14h36.24.601103 +0530,
52,0,52,0,95.10258230002364,,95.06591010000557,10,95.10258230002364,95.10258230002364,0.027915300044696778,96.63012620003428,[-0.031875],[0.184375],[1],[0],[0],[1.5364455999806523],['target'],292999,001,2024-10-05_14h36.16.451,Visual.Search_priyanshiAU2220101,2024.1.5,None,2024-10-05 14h36.24.601103 +0530,
53,0,53,0,96.65574260003632,,96.63325760001317,5,96.65574260003632,96.65574260003632,0.017553100013174117,98.71427990001393,[-0.490625],[0.028125],[1],[0],[0],[2.063656899961643],['target'],292999,001,2024-10-05_14h36.16.451,Visual.Search_priyanshiAU2220101,2024.1.5,None,2024-10-05 14h36.24.601103 +0530,
54,0,54,0,98.73695809999481,,98.71668160002446,5,98.73695809999481,98.73695809999481,0.012809299980290234,100.51334260002477,[0.0275],[0.3],[1],[0],[0],[1.7839416999486275],['target'],292999,001,2024-10-05_14h36.16.451,Visual.Search_priyanshiAU2220101,2024.1.5,None,2024-10-05 14h36.24.601103 +0530,
55,0,55,0,100.55154590000166,,100.51659120002296,10,100.55154590000166,100.55154590000166,0.024991999962367117,101.99672440002905,[0.35125],[-0.0525],[1],[0],[0],[1.4554610999766737],['target'],292999,001,2024-10-05_14h36.16.451,Visual.Search_priyanshiAU2220101,2024.1.5,None,2024-10-05 14h36.24.601103 +0530,
56,0,56,0,102.03029080003034,,101.99928910000017,10,102.03029080003034,102.03029080003034,0.0215574000030756,103.41428349999478,[0.303125],[-0.215],[1],[0],[0],[1.3935004000086337],[],292999,001,2024-10-05_14h36.16.451,Visual.Search_priyanshiAU2220101,2024.1.5,None,2024-10-05 14h36.24.601103 +0530,
57,0,57,0,103.43445950001478,,103.41656079998938,5,103.43445950001478,103.43445950001478,0.01223520003259182,105.13098539999919,[-0.159375],[-0.4425],[1],[0],[0],[1.7022357999812812],['target'],292999,001,2024-10-05_14h36.16.451,Visual.Search_priyanshiAU2220101,2024.1.5,None,2024-10-05 14h36.24.601103 +0530,
58,0,58,0,105.15235250000842,,105.13323350000428,5,105.15235250000842,105.15235250000842,0.012002000003121793,106.74725630000466,[0.099375],[0.10375],[1],[0],[0],[1.6020122000481933],['target'],292999,001,2024-10-05_14h36.16.451,Visual.Search_priyanshiAU2220101,2024.1.5,None,2024-10-05 14h36.24.601103 +0530,
59,0,59,0,106.78120670001954,,106.74952389998361,10,106.78120670001954,106.78120670001954,0.021887100010644644,108.29680519999238,[-0.46625],[0.004375],[1],[0],[0],[1.5253848999855109],[],292999,001,2024-10-05_14h36.16.451,Visual.Search_priyanshiAU2220101,2024.1.5,None,2024-10-05 14h36.24.601103 +0530,
60,0,60,0,108.31748830003198,,108.29969349998282,5,108.31748830003198,108.31748830003198,0.012250899977516383,110.34746770001948,[0.296875],[-0.384375],[1],[0],[0],[2.0355440999846905],['target'],292999,001,2024-10-05_14h36.16.451,Visual.Search_priyanshiAU2220101,2024.1.5,None,2024-10-05 14h36.24.601103 +0530,
61,0,61,0,110.36824560002424,,110.35012740001548,5,110.36824560002424,110.36824560002424,0.012130799994338304,111.93070700002136,[-0.021875],[0.105],[1],[0],[0],[1.5685468000010587],['target'],292999,001,2024-10-05_14h36.16.451,Visual.Search_priyanshiAU2220101,2024.1.5,None,2024-10-05 14h36.24.601103 +0530,
62,0,62,0,111.96192690002499,,111.93304089998128,10,111.96192690002499,111.96192690002499,0.020556300005409867,113.99647290003486,[-0.4075],[0.4725],[1],[0],[0],[2.042997499986086],['target'],292999,001,2024-10-05_14h36.16.451,Visual.Search_priyanshiAU2220101,2024.1.5,None,2024-10-05 14h36.24.601103 +0530,
63,0,63,0,114.01531940000132,,113.99870410002768,5,114.01531940000132,114.01531940000132,0.010571799997705966,116.11334740003804,[-0.038125],[-0.465625],[1],[0],[0],[2.1041778999497183],['target'],292999,001,2024-10-05_14h36.16.451,Visual.Search_priyanshiAU2220101,2024.1.5,None,2024-10-05 14h36.24.601103 +0530,
64,0,64,0,116.15217690001009,,116.11569170001894,10,116.15217690001009,116.15217690001009,0.027884199982509017,118.3295528999879,[0.20125],[0.414375],[1],[0],[0],[2.1861156999948435],['target'],292999,001,2024-10-05_14h36.16.451,Visual.Search_priyanshiAU2220101,2024.1.5,None,2024-10-05 14h36.24.601103 +0530,
65,0,65,0,118.35409650002839,,118.33419520000461,5,118.35409650002839,118.35409650002839,0.014661199995316565,119.96361420000903,[0.145625],[-0.015],[1],[0],[0],[1.6155408999766223],['target'],292999,001,2024-10-05_14h36.16.451,Visual.Search_priyanshiAU2220101,2024.1.5,None,2024-10-05 14h36.24.601103 +0530,
66,0,66,0,119.98455580003792,,119.96683689998463,5,119.98455580003792,119.98455580003792,0.012268699996639043,121.19715860002907,[-0.066875],[-0.425625],[1],[0],[0],[1.218311500037089],['target'],292999,001,2024-10-05_14h36.16.451,Visual.Search_priyanshiAU2220101,2024.1.5,None,2024-10-05 14h36.24.601103 +0530,
67,0,67,0,121.2202377000358,,121.20025260001421,5,121.2202377000358,121.2202377000358,0.01356120000127703,122.92977440002142,[0.2875],[-0.35375],[1],[0],[0],[1.7162542000296526],['target'],292999,001,2024-10-05_14h36.16.451,Visual.Search_priyanshiAU2220101,2024.1.5,None,2024-10-05 14h36.24.601103 +0530,
68,0,68,0,122.96760199998971,,122.93305049999617,10,122.96760199998971,122.96760199998971,0.025283100025262684,124.44713560002856,[-0.011875],[-0.194375],[1],[0],[0],[1.4893921000184491],['target'],292999,001,2024-10-05_14h36.16.451,Visual.Search_priyanshiAU2220101,2024.1.5,None,2024-10-05 14h36.24.601103 +0530,
69,0,69,0,124.48495399998501,,124.44961569999577,10,124.48495399998501,124.48495399998501,0.02457100001629442,125.98063180001918,[0.485],[-0.138125],[1],[0],[0],[1.5062762000015937],['target'],292999,001,2024-10-05_14h36.16.451,Visual.Search_priyanshiAU2220101,2024.1.5,None,2024-10-05 14h36.24.601103 +0530,
70,0,70,0,126.00316459999885,,125.98418010002933,5,126.00316459999885,126.00316459999885,0.013616699958220124,127.34585530002369,[-0.034375],[-0.465],[1],[0],[0],[1.3484655999927782],['target'],292999,001,2024-10-05_14h36.16.451,Visual.Search_priyanshiAU2220101,2024.1.5,None,2024-10-05 14h36.24.601103 +0530,
71,0,71,0,127.36711410002317,,127.3487930999836,5,127.36711410002317,127.36711410002317,0.012382799992337823,128.89677190000657,[0.0875],[0.433125],[1],[0],[0],[1.5358300000079907],['target'],292999,001,2024-10-05_14h36.16.451,Visual.Search_priyanshiAU2220101,2024.1.5,None,2024-10-05 14h36.24.601103 +0530,
72,0,72,0,128.9294028999866,,128.8991529000341,10,128.9294028999866,128.9294028999866,0.021094399970024824,130.88073949998943,[-0.26875],[-0.4425],[1],[0],[0],[1.960535100020934],['target'],292999,001,2024-10-05_14h36.16.451,Visual.Search_priyanshiAU2220101,2024.1.5,None,2024-10-05 14h36.24.601103 +0530,
73,0,73,0,130.9136597000179,,130.8829838000238,10,130.9136597000179,130.9136597000179,0.02080759999807924,132.4124324999866,[0.13375],[-0.403125],[1],[0],[0],[1.5087859999621287],['target'],292999,001,2024-10-05_14h36.16.451,Visual.Search_priyanshiAU2220101,2024.1.5,None,2024-10-05 14h36.24.601103 +0530,
74,0,74,0,132.44754210003885,,132.41469990002224,10,132.44754210003885,132.44754210003885,0.021023300010710955,134.06257740000729,[-0.164375],[-0.246875],[1],[0],[0],[1.6270151999779046],['target'],292999,001,2024-10-05_14h36.16.451,Visual.Search_priyanshiAU2220101,2024.1.5,None,2024-10-05 14h36.24.601103 +0530,
75,0,75,0,134.0823672999977,,134.0648666000343,5,134.0823672999977,134.0823672999977,0.010520700016058981,135.48003420000896,[0.410625],[-0.2225],[1],[0],[0],[1.4045473000151105],['target'],292999,001,2024-10-05_14h36.16.451,Visual.Search_priyanshiAU2220101,2024.1.5,None,2024-10-05 14h36.24.601103 +0530,
76,0,76,0,135.50222950003808,,135.4828801000258,5,135.50222950003808,135.50222950003808,0.012384600006043911,137.1300510999863,[-0.023125],[0.22125],[1],[0],[0],[1.6350032000336796],['target'],292999,001,2024-10-05_14h36.16.451,Visual.Search_priyanshiAU2220101,2024.1.5,None,2024-10-05 14h36.24.601103 +0530,
77,0,77,0,137.1616829999839,,137.13251440000022,10,137.1616829999839,137.1616829999839,0.020626300014555454,139.4291503999848,[-0.413125],[-0.45],[1],[0],[0],[2.276130199956242],['target'],292999,001,2024-10-05_14h36.16.451,Visual.Search_priyanshiAU2220101,2024.1.5,None,2024-10-05 14h36.24.601103 +0530,
78,0,78,0,139.44818740000483,,139.43150669999886,5,139.44818740000483,139.44818740000483,0.011133399966638535,141.16344790003495,[0.43],[0.3525],[1],[0],[0],[1.7209521000040695],['target'],292999,001,2024-10-05_14h36.16.451,Visual.Search_priyanshiAU2220101,2024.1.5,None,2024-10-05 14h36.24.601103 +0530,
79,0,79,0,141.18331749999197,,141.16613379999762,5,141.18331749999197,141.18331749999197,0.01066889998037368,142.71325840003556,[0.3275],[0.469375],[1],[0],[0],[1.5365661999676377],['target'],292999,001,2024-10-05_14h36.16.451,Visual.Search_priyanshiAU2220101,2024.1.5,None,2024-10-05 14h36.24.601103 +0530,
80,0,80,0,142.74544520000927,,142.7155974000343,10,142.74544520000927,142.74544520000927,0.020709100004751235,144.92929509998066,[0.354375],[-0.478125],[1],[0],[0],[2.1931638999958523],[],292999,001,2024-10-05_14h36.16.451,Visual.Search_priyanshiAU2220101,2024.1.5,None,2024-10-05 14h36.24.601103 +0530,
81,0,81,0,144.94943199999398,,144.9316749999998,5,144.94943199999398,144.94943199999398,0.011597200005780905,146.66253279999364,[0.1475],[0.321875],[1],[0],[0],[1.7192959999665618],['target'],292999,001,2024-10-05_14h36.16.451,Visual.Search_priyanshiAU2220101,2024.1.5,None,2024-10-05 14h36.24.601103 +0530,
82,0,82,0,146.68137410003692,,146.6647405999829,5,146.68137410003692,146.68137410003692,0.010806599981151521,147.92916040000273,[-0.24875],[0.0375],[1],[0],[0],[1.2536866000154987],['target'],292999,001,2024-10-05_14h36.16.451,Visual.Search_priyanshiAU2220101,2024.1.5,None,2024-10-05 14h36.24.601103 +0530,
83,0,83,0,147.9630795000121,,147.9318215000094,10,147.9630795000121,147.9630795000121,0.022059099981561303,149.94675270002335,[0.01],[0.4275],[1],[0],[0],[1.9929839000105858],['target'],292999,001,2024-10-05_14h36.16.451,Visual.Search_priyanshiAU2220101,2024.1.5,None,2024-10-05 14h36.24.601103 +0530,
84,0,84,0,149.96526710002217,,149.94911510002567,5,149.96526710002217,149.96526710002217,0.010242000047583133,151.91268539999146,[-0.51375],[-0.459375],[1],[0],[0],[1.9535127999843098],[],292999,001,2024-10-05_14h36.16.451,Visual.Search_priyanshiAU2220101,2024.1.5,None,2024-10-05 14h36.24.601103 +0530,
85,0,85,0,151.93504499999108,,151.91518290003296,5,151.93504499999108,151.93504499999108,0.012012000021059066,153.3804203000036,[-0.086875],[0.0225],[1],[0],[0],[1.4533417000202462],['target'],292999,001,2024-10-05_14h36.16.451,Visual.Search_priyanshiAU2220101,2024.1.5,None,2024-10-05 14h36.24.601103 +0530,
86,0,86,0,153.41833660000702,,153.38325529999565,10,153.41833660000702,153.41833660000702,0.024160099972505122,155.22911880002357,[0.46625],[0.315625],[1],[0],[0],[1.8220704999985173],['target'],292999,001,2024-10-05_14h36.16.451,Visual.Search_priyanshiAU2220101,2024.1.5,None,2024-10-05 14h36.24.601103 +0530,
87,0,87,0,155.25042779999785,,155.23146490001818,5,155.25042779999785,155.25042779999785,0.011755000043194741,156.69627130002482,[0.1425],[-0.034375],[1],[0],[0],[1.4531351000186987],['target'],292999,001,2024-10-05_14h36.16.451,Visual.Search_priyanshiAU2220101,2024.1.5,None,2024-10-05 14h36.24.601103 +0530,
88,0,88,0,156.72956870001508,,156.69860639999388,10,156.72956870001508,156.72956870001508,0.02029210003092885,158.32985929999268,[-0.429375],[0.213125],[1],[0],[0],[1.6111309999832883],['target'],292999,001,2024-10-05_14h36.16.451,Visual.Search_priyanshiAU2220101,2024.1.5,None,2024-10-05 14h36.24.601103 +0530,
89,0,89,0,158.35145469999406,,158.33230080001522,5,158.35145469999406,158.35145469999406,0.011584400024730712,160.1958116000169,[0.409375],[0.304375],[1],[0],[0],[1.85197950003203],['target'],292999,001,2024-10-05_14h36.16.451,Visual.Search_priyanshiAU2220101,2024.1.5,None,2024-10-05 14h36.24.601103 +0530,
90,0,90,0,160.21714289998636,,160.1986893999856,5,160.21714289998636,160.21714289998636,0.011893199989572167,161.69562429998768,[-0.26125],[0.258125],[1],[0],[0],[1.485356600023806],['target'],292999,001,2024-10-05_14h36.16.451,Visual.Search_priyanshiAU2220101,2024.1.5,None,2024-10-05 14h36.24.601103 +0530,
91,0,91,0,161.715382400027,,161.69786030001706,5,161.715382400027,161.715382400027,0.0104496999992989,162.91245780000463,[-0.026875],[0.296875],[1],[0],[0],[1.2042338000028394],['target'],292999,001,2024-10-05_14h36.16.451,Visual.Search_priyanshiAU2220101,2024.1.5,None,2024-10-05 14h36.24.601103 +0530,
92,0,92,0,162.93100869999034,,162.91464909998467,5,162.93100869999034,162.93100869999034,0.010327900003176183,164.57964409998385,[0.24],[-0.038125],[1],[0],[0],[1.6547641000361182],['target'],292999,001,2024-10-05_14h36.16.451,Visual.Search_priyanshiAU2220101,2024.1.5,None,2024-10-05 14h36.24.601103 +0530,
93,0,93,0,164.60104410001077,,164.58190300001297,5,164.60104410001077,164.60104410001077,0.011354500020388514,166.01232710003387,[0.218125],[0.406875],[1],[0],[0],[1.41910989995813],['target'],292999,001,2024-10-05_14h36.16.451,Visual.Search_priyanshiAU2220101,2024.1.5,None,2024-10-05 14h36.24.601103 +0530,
94,0,94,0,166.04669859999558,,166.01456919999328,10,166.04669859999558,166.04669859999558,0.020913699991069734,167.8453026000061,[-0.186875],[0.38375],[1],[0],[0],[1.8099874999606982],['target'],292999,001,2024-10-05_14h36.16.451,Visual.Search_priyanshiAU2220101,2024.1.5,None,2024-10-05 14h36.24.601103 +0530,
95,0,95,0,167.8662582000252,,167.8476709999959,5,167.8662582000252,167.8662582000252,0.01139520003926009,169.3294409000082,[0.163125],[0.3725],[1],[0],[0],[1.470423299993854],['target'],292999,001,2024-10-05_14h36.16.451,Visual.Search_priyanshiAU2220101,2024.1.5,None,2024-10-05 14h36.24.601103 +0530,
96,0,96,0,169.3653542000102,,169.3317182000028,10,169.3653542000102,169.3653542000102,0.0204401999944821,170.7794723000261,[-0.03375],[-0.313125],[1],[0],[0],[1.4273588000214659],['target'],292999,001,2024-10-05_14h36.16.451,Visual.Search_priyanshiAU2220101,2024.1.5,None,2024-10-05 14h36.24.601103 +0530,
97,0,97,0,170.81175210000947,,170.7823369000107,10,170.81175210000947,170.81175210000947,0.020954900013748556,172.17906080000103,[0.174375],[-0.27125],[1],[0],[0],[1.375915399985388],['target'],292999,001,2024-10-05_14h36.16.451,Visual.Search_priyanshiAU2220101,2024.1.5,None,2024-10-05 14h36.24.601103 +0530,
98,0,98,0,172.21541609999258,,172.18160369998077,10,172.21541609999258,172.21541609999258,0.0228478999924846,173.7289477000013,[0.36625],[-0.193125],[1],[0],[0],[1.5246658999822102],['target'],292999,001,2024-10-05_14h36.16.451,Visual.Search_priyanshiAU2220101,2024.1.5,None,2024-10-05 14h36.24.601103 +0530,
99,0,99,0,173.76268490002258,,173.73115950002102,10,173.76268490002258,173.76268490002258,0.021669300040230155,175.1630283999839,[-0.383125],[-0.0325],[1],[0],[0],[1.41026629996486],['target'],292999,001,2024-10-05_14h36.16.451,Visual.Search_priyanshiAU2220101,2024.1.5,None,2024-10-05 14h36.24.601103 +0530,
100,0,100,0,175.20177739998326,,175.1653489000164,10,175.20177739998326,175.20177739998326,0.024186499998904765,176.66192859999137,[-0.1325],[-0.154375],[1],[0],[0],[1.4726610999787226],[],292999,001,2024-10-05_14h36.16.451,Visual.Search_priyanshiAU2220101,2024.1.5,None,2024-10-05 14h36.24.601103 +0530,
101,0,101,0,176.69645550003042,,176.66426290001255,10,176.69645550003042,176.69645550003042,0.02288060000864789,178.06216999999015,[0.014375],[-0.0375],[1],[0],[0],[1.375250099983532],['target'],292999,001,2024-10-05_14h36.16.451,Visual.Search_priyanshiAU2220101,2024.1.5,None,2024-10-05 14h36.24.601103 +0530,
102,0,102,0,178.0826838000212,,178.06454440002562,5,178.0826838000212,178.0826838000212,0.01176249998388812,179.76264040003298,[0.436875],[0.4075],[1],[0],[0],[1.6864763000048697],['target'],292999,001,2024-10-05_14h36.16.451,Visual.Search_priyanshiAU2220101,2024.1.5,None,2024-10-05 14h36.24.601103 +0530,
103,0,103,0,179.79999770002905,,179.76558840001235,10,179.79999770002905,179.79999770002905,0.024685500015038997,181.41352940001525,[-0.4775],[0.15375],[1],[0],[0],[1.6233689000364393],['target'],292999,001,2024-10-05_14h36.16.451,Visual.Search_priyanshiAU2220101,2024.1.5,None,2024-10-05 14h36.24.601103 +0530,
104,0,104,0,181.44652970001334,,181.41579850000562,10,181.44652970001334,181.44652970001334,0.021181999996770173,183.41197469999315,[0.440625],[0.00625],[1],[0],[0],[1.9751884000143036],['target'],292999,001,2024-10-05_14h36.16.451,Visual.Search_priyanshiAU2220101,2024.1.5,None,2024-10-05 14h36.24.601103 +0530,
105,0,105,0,183.43786230002297,,183.41490710002836,5,183.43786230002297,183.43786230002297,0.01410800003213808,185.42831620003562,[-0.27375],[-0.346875],[1],[0],[0],[1.999639899993781],['target'],292999,001,2024-10-05_14h36.16.451,Visual.Search_priyanshiAU2220101,2024.1.5,None,2024-10-05 14h36.24.601103 +0530,
106,0,106,0,185.45380930003012,,185.4319661000045,5,185.45380930003012,185.45380930003012,0.014229900029022247,186.9279310000129,[-0.100625],[-0.4375],[1],[0],[0],[1.4820218000095338],[],292999,001,2024-10-05_14h36.16.451,Visual.Search_priyanshiAU2220101,2024.1.5,None,2024-10-05 14h36.24.601103 +0530,
107,0,107,0,186.97018609999213,,186.93016560003161,10,186.97018609999213,186.97018609999213,0.03158030001213774,188.66074920003302,[0.30375],[-0.320625],[1],[0],[0],[1.699189800012391],['target'],292999,001,2024-10-05_14h36.16.451,Visual.Search_priyanshiAU2220101,2024.1.5,None,2024-10-05 14h36.24.601103 +0530,
108,0,108,0,188.6792839000118,,188.66309170000022,5,188.6792839000118,188.6792839000118,0.01047639996977523,190.295127600024,[-0.42125],[0.364375],[1],[0],[0],[1.6217518999474123],['target'],292999,001,2024-10-05_14h36.16.451,Visual.Search_priyanshiAU2220101,2024.1.5,None,2024-10-05 14h36.24.601103 +0530,
109,0,109,0,190.3182000000379,,190.29920399998082,5,190.3182000000379,190.3182000000379,0.012752500013448298,191.61094540002523,[-0.179375],[0.354375],[1],[0],[0],[1.299372800043784],['target'],292999,001,2024-10-05_14h36.16.451,Visual.Search_priyanshiAU2220101,2024.1.5,None,2024-10-05 14h36.24.601103 +0530,
110,0,110,0,191.63041600002907,,191.6133237000322,5,191.63041600002907,191.63041600002907,0.01208089996362105,192.87782370002242,[0.165],[-0.033125],[1],[0],[0],[1.2526222000014968],['target'],292999,001,2024-10-05_14h36.16.451,Visual.Search_priyanshiAU2220101,2024.1.5,None,2024-10-05 14h36.24.601103 +0530,
111,0,111,0,192.9127898000297,,192.88019669998903,10,192.9127898000297,192.9127898000297,0.023407000000588596,194.09477239998523,[-0.15125],[0.29],[1],[0],[0],[1.1914064000011422],[],292999,001,2024-10-05_14h36.16.451,Visual.Search_priyanshiAU2220101,2024.1.5,None,2024-10-05 14h36.24.601103 +0530,
112,0,112,0,194.1288120999816,,194.0971040999866,10,194.1288120999816,194.1288120999816,0.02302560000680387,196.02723320003133,[0.309375],[0.25375],[1],[0],[0],[1.9073212000075728],['target'],292999,001,2024-10-05_14h36.16.451,Visual.Search_priyanshiAU2220101,2024.1.5,None,2024-10-05 14h36.24.601103 +0530,
113,0,113,0,196.06132480001543,,196.02957130002324,10,196.06132480001543,196.06132480001543,0.021712400019168854,198.19477559998631,[0.08375],[-0.45],[1],[0],[0],[2.1437208999996074],['target'],292999,001,2024-10-05_14h36.16.451,Visual.Search_priyanshiAU2220101,2024.1.5,None,2024-10-05 14h36.24.601103 +0530,
114,0,114,0,198.22712230001343,,198.19707480003126,10,198.22712230001343,198.22712230001343,0.020647299999836832,200.1777093000128,[0.185],[0.315625],[1],[0],[0],[1.960192399972584],['target'],292999,001,2024-10-05_14h36.16.451,Visual.Search_priyanshiAU2220101,2024.1.5,None,2024-10-05 14h36.24.601103 +0530,
115,0,115,0,200.21297180000693,,200.18057530000806,10,200.21297180000693,200.21297180000693,0.02347740001277998,202.2110818999936,[0.49375],[0.128125],[1],[0],[0],[2.007324400008656],['target'],292999,001,2024-10-05_14h36.16.451,Visual.Search_priyanshiAU2220101,2024.1.5,None,2024-10-05 14h36.24.601103 +0530,
116,0,116,0,202.2306816999917,,202.21337100001983,5,202.2306816999917,202.2306816999917,0.010890299978200346,203.46140460000606,[-0.2525],[-0.0775],[1],[0],[0],[1.237317199993413],['target'],292999,001,2024-10-05_14h36.16.451,Visual.Search_priyanshiAU2220101,2024.1.5,None,2024-10-05 14h36.24.601103 +0530,
117,0,117,0,203.4968419999932,,203.46430210000835,10,203.4968419999932,203.4968419999932,0.02410300000337884,205.51128239999525,[-0.390625],[0.28375],[1],[0],[0],[2.0232460999977775],[],292999,001,2024-10-05_14h36.16.451,Visual.Search_priyanshiAU2220101,2024.1.5,None,2024-10-05 14h36.24.601103 +0530,
118,0,118,0,205.54541830002563,,205.51367580000078,10,205.54541830002563,205.54541830002563,0.02185229997849092,206.91150280000875,[-0.25625],[0.300625],[1],[0],[0],[1.3761455999920145],['target'],292999,001,2024-10-05_14h36.16.451,Visual.Search_priyanshiAU2220101,2024.1.5,None,2024-10-05 14h36.24.601103 +0530,
119,0,119,0,206.93179390003206,,206.9139254000038,5,206.93179390003206,206.93179390003206,0.011823100037872791,208.7614608000149,[0.49125],[0.18375],[1],[0],[0],[1.8359310000087135],['target'],292999,001,2024-10-05_14h36.16.451,Visual.Search_priyanshiAU2220101,2024.1.5,None,2024-10-05 14h36.24.601103 +0530,
120,0,120,0,208.79428600001847,,208.7638931000256,10,208.79428600001847,208.79428600001847,0.021681200014427304,210.29394060000777,[0.246875],[-0.2125],[1],[0],[0],[1.5085681999917142],['target'],292999,001,2024-10-05_14h36.16.451,Visual.Search_priyanshiAU2220101,2024.1.5,None,2024-10-05 14h36.24.601103 +0530,
121,0,121,0,210.32587910001166,,210.29630280000856,10,210.32587910001166,210.32587910001166,0.02088149997871369,212.84447579999687,[0.45],[0.028125],[1],[0],[0],[2.527398100006394],['target'],292999,001,2024-10-05_14h36.16.451,Visual.Search_priyanshiAU2220101,2024.1.5,None,2024-10-05 14h36.24.601103 +0530,
122,0,122,0,212.86570969998138,,212.84682800003793,5,212.86570969998138,212.86570969998138,0.012001299997791648,214.47829850000562,[-0.239375],[0.4675],[1],[0],[0],[1.6194482000428252],['target'],292999,001,2024-10-05_14h36.16.451,Visual.Search_priyanshiAU2220101,2024.1.5,None,2024-10-05 14h36.24.601103 +0530,
123,0,123,0,214.51187869999558,,214.48121579998406,10,214.51187869999558,214.51187869999558,0.02028930000960827,217.24462359998142,[0.258125],[0.47625],[1],[0],[0],[2.7433208999573253],['target'],292999,001,2024-10-05_14h36.16.451,Visual.Search_priyanshiAU2220101,2024.1.5,None,2024-10-05 14h36.24.601103 +0530,
124,0,124,0,217.2648012000136,,217.2468419999932,5,217.2648012000136,217.2648012000136,0.010384300025179982,218.92804000002798,[0.313125],[-0.42625],[1],[0],[0],[1.6707892999984324],['target'],292999,001,2024-10-05_14h36.16.451,Visual.Search_priyanshiAU2220101,2024.1.5,None,2024-10-05 14h36.24.601103 +0530,
125,0,125,0,218.96178130002227,,218.93029849999584,10,218.96178130002227,218.96178130002227,0.020168199960608035,221.36086700001033,[-0.43875],[-0.1925],[1],[0],[0],[2.4104646999621764],['target'],292999,001,2024-10-05_14h36.16.451,Visual.Search_priyanshiAU2220101,2024.1.5,None,2024-10-05 14h36.24.601103 +0530,
126,0,126,0,221.38048340001842,,221.36304520000704,5,221.38048340001842,221.38048340001842,0.010599799978081137,223.32757229998242,[0.311875],[0.36625],[1],[0],[0],[1.953899200016167],['target'],292999,001,2024-10-05_14h36.16.451,Visual.Search_priyanshiAU2220101,2024.1.5,None,2024-10-05 14h36.24.601103 +0530,
127,0,127,0,223.348298900004,,223.33002940000733,5,223.348298900004,223.348298900004,0.011336399998981506,225.57747710001422,[-0.31875],[0.2125],[1],[0],[0],[2.2362696999916807],['target'],292999,001,2024-10-05_14h36.16.451,Visual.Search_priyanshiAU2220101,2024.1.5,None,2024-10-05 14h36.24.601103 +0530,
128,0,128,0,225.59662170003867,,225.57981229998404,5,225.59662170003867,225.59662170003867,0.010892000049352646,227.0448453000281,[0.445],[0.385625],[1],[0],[0],[1.4541927999816835],['target'],292999,001,2024-10-05_14h36.16.451,Visual.Search_priyanshiAU2220101,2024.1.5,None,2024-10-05 14h36.24.601103 +0530,
129,0,129,0,227.0638868000242,,227.0470970000024,5,227.0638868000242,227.0638868000242,0.010490100015886128,228.52711600001203,[0.250625],[-0.100625],[1],[0],[0],[1.4697019000304863],['target'],292999,001,2024-10-05_14h36.16.451,Visual.Search_priyanshiAU2220101,2024.1.5,None,2024-10-05 14h36.24.601103 +0530,
130,0,130,0,228.56662450003205,,228.53013790003024,10,228.56662450003205,228.56662450003205,0.024478099949192256,230.42739510000683,[0.165625],[-0.32875],[1],[0],[0],[1.8729570000432432],['target'],292999,001,2024-10-05_14h36.16.451,Visual.Search_priyanshiAU2220101,2024.1.5,None,2024-10-05 14h36.24.601103 +0530,
131,0,131,0,230.4639522000216,,230.42967209999915,10,230.4639522000216,230.4639522000216,0.02188739995472133,231.99431159999222,[0.0125],[-0.4225],[1],[0],[0],[1.5427139000385068],['target'],292999,001,2024-10-05_14h36.16.451,Visual.Search_priyanshiAU2220101,2024.1.5,None,2024-10-05 14h36.24.601103 +0530,
132,0,132,0,232.0154412999982,,231.99649049999425,5,232.0154412999982,232.0154412999982,0.011208500014618039,234.07779960002517,[-0.33125],[-0.3875],[1],[0],[0],[2.0701751999440603],['target'],292999,001,2024-10-05_14h36.16.451,Visual.Search_priyanshiAU2220101,2024.1.5,None,2024-10-05 14h36.24.601103 +0530,
133,0,133,0,234.09828849998303,,234.08002340001985,5,234.09828849998303,234.09828849998303,0.010714600037317723,235.96166159998393,[-0.445],[-0.12125],[1],[0],[0],[1.870949100004509],['target'],292999,001,2024-10-05_14h36.16.451,Visual.Search_priyanshiAU2220101,2024.1.5,None,2024-10-05 14h36.24.601103 +0530,
134,0,134,0,235.98095960001228,,235.963878199982,5,235.98095960001228,235.98095960001228,0.010806599981151521,237.49384509999072,[-0.433125],[-0.066875],[1],[0],[0],[1.51906640001107],['target'],292999,001,2024-10-05_14h36.16.451,Visual.Search_priyanshiAU2220101,2024.1.5,None,2024-10-05 14h36.24.601103 +0530,
135,0,135,0,237.5281672999845,,237.49631660000887,10,237.5281672999845,237.5281672999845,0.02300909999758005,239.49361760000465,[-0.338125],[-0.171875],[1],[0],[0],[1.9745116000412963],[],292999,001,2024-10-05_14h36.16.451,Visual.Search_priyanshiAU2220101,2024.1.5,None,2024-10-05 14h36.24.601103 +0530,
136,0,136,0,239.51239799999166,,239.49582200002624,5,239.51239799999166,239.51239799999166,0.010298500012140721,241.1941644999897,[0.35375],[0.1425],[1],[0],[0],[1.6880231000250205],['target'],292999,001,2024-10-05_14h36.16.451,Visual.Search_priyanshiAU2220101,2024.1.5,None,2024-10-05 14h36.24.601103 +0530,
137,0,137,0,241.21442530001514,,241.19661550002638,5,241.21442530001514,241.21442530001514,0.010831699997652322,242.85993959999178,[0.068125],[0.01875],[1],[0],[0],[1.6528216999722645],['target'],292999,001,2024-10-05_14h36.16.451,Visual.Search_priyanshiAU2220101,2024.1.5,None,2024-10-05 14h36.24.601103 +0530,
138,0,138,0,242.88372029998573,,242.86227829998825,5,242.88372029998573,242.88372029998573,0.014382400026079267,244.8942243999918,[0.358125],[0.37375],[1],[0],[0],[2.017629300011322],['target'],292999,001,2024-10-05_14h36.16.451,Visual.Search_priyanshiAU2220101,2024.1.5,None,2024-10-05 14h36.24.601103 +0530,
139,0,139,0,244.9154552000109,,244.89642260002438,5,244.9154552000109,244.9154552000109,0.011121399991679937,247.44370070000878,[-0.369375],[-0.23625],[1],[0],[0],[2.5363339000032283],[],292999,001,2024-10-05_14h36.16.451,Visual.Search_priyanshiAU2220101,2024.1.5,None,2024-10-05 14h36.24.601103 +0530,
140,0,140,0,247.47713990003103,,247.4459875000175,10,247.47713990003103,247.47713990003103,0.02098119998117909,248.993520500022,[-0.433125],[-0.2625],[1],[0],[0],[1.526629000029061],['target'],292999,001,2024-10-05_14h36.16.451,Visual.Search_priyanshiAU2220101,2024.1.5,None,2024-10-05 14h36.24.601103 +0530,
141,0,141,0,249.01318310003262,,248.99571570003172,5,249.01318310003262,249.01318310003262,0.011005000036675483,250.66097550000995,[0.315625],[-0.335],[1],[0],[0],[1.6543233999982476],['target'],292999,001,2024-10-05_14h36.16.451,Visual.Search_priyanshiAU2220101,2024.1.5,None,2024-10-05 14h36.24.601103 +0530,
142,0,142,0,250.67992229998345,,250.66315969999414,5,250.67992229998345,250.67992229998345,0.010310899990145117,252.3600891000242,[-0.01375],[-0.401875],[1],[0],[0],[1.6866090000257827],['target'],292999,001,2024-10-05_14h36.16.451,Visual.Search_priyanshiAU2220101,2024.1.5,None,2024-10-05 14h36.24.601103 +0530,
143,0,143,0,252.39262200001394,,252.36230620002607,10,252.39262200001394,252.39262200001394,0.02105369995115325,254.05985030002194,[-0.005],[0.2225],[1],[0],[0],[1.6766291999956593],['target'],292999,001,2024-10-05_14h36.16.451,Visual.Search_priyanshiAU2220101,2024.1.5,None,2024-10-05 14h36.24.601103 +0530,
144,0,144,0,254.0953813000233,,254.06276579998666,10,254.0953813000233,254.0953813000233,0.02345970005262643,255.76063750003232,[0.32],[-0.07875],[1],[0],[0],[1.6746596000157297],['target'],292999,001,2024-10-05_14h36.16.451,Visual.Search_priyanshiAU2220101,2024.1.5,None,2024-10-05 14h36.24.601103 +0530,
145,0,145,0,255.7803269000142,,255.76287750003394,5,255.7803269000142,255.7803269000142,0.01096990000223741,257.1778495000326,[-0.33625],[-0.141875],[1],[0],[0],[1.4040089000482112],[],292999,001,2024-10-05_14h36.16.451,Visual.Search_priyanshiAU2220101,2024.1.5,None,2024-10-05 14h36.24.601103 +0530,
146,0,146,0,257.214203200012,,257.18028319999576,10,257.214203200012,257.214203200012,0.025207400030922145,258.74312270001974,[-0.1225],[0.171875],[1],[0],[0],[1.5376947000040673],['target'],292999,001,2024-10-05_14h36.16.451,Visual.Search_priyanshiAU2220101,2024.1.5,None,2024-10-05 14h36.24.601103 +0530,
147,0,147,0,258.76255660003517,,258.74538370000664,5,258.76255660003517,258.76255660003517,0.01114180003060028,260.2770277999807,[-0.416875],[-0.34875],[1],[0],[0],[1.5204852999886498],['target'],292999,001,2024-10-05_14h36.16.451,Visual.Search_priyanshiAU2220101,2024.1.5,None,2024-10-05 14h36.24.601103 +0530,
148,0,148,0,260.3126786000212,,260.27997690002667,10,260.3126786000212,260.3126786000212,0.02294990001246333,262.3434374000062,[0.41],[-0.091875],[1],[0],[0],[2.040640799968969],['target'],292999,001,2024-10-05_14h36.16.451,Visual.Search_priyanshiAU2220101,2024.1.5,None,2024-10-05 14h36.24.601103 +0530,
149,0,149,0,262.3777855000226,,262.3457409000257,10,262.3777855000226,262.3777855000226,0.022527099994476885,264.89319040003465,[-0.394375],[0.020625],[1],[0],[0],[2.5250035999924876],['target'],292999,001,2024-10-05_14h36.16.451,Visual.Search_priyanshiAU2220101,2024.1.5,None,2024-10-05 14h36.24.601103 +0530,
150,0,150,0,264.9422319000005,,264.8969541999977,10,264.9422319000005,264.9422319000005,0.03400250000413507,267.6276353999856,[0.440625],[-0.320625],[1],[0],[0],[2.696937999979127],['target'],292999,001,2024-10-05_14h36.16.451,Visual.Search_priyanshiAU2220101,2024.1.5,None,2024-10-05 14h36.24.601103 +0530,
151,0,151,0,267.66014910000376,,267.62986600003205,10,267.66014910000376,267.66014910000376,0.021071899973321706,269.49256980000064,[-0.16625],[0.315],[1],[0],[0],[1.841678700002376],['target'],292999,001,2024-10-05_14h36.16.451,Visual.Search_priyanshiAU2220101,2024.1.5,None,2024-10-05 14h36.24.601103 +0530,
152,0,152,0,269.5248618000187,,269.49483260000125,10,269.5248618000187,269.5248618000187,0.02126840001437813,271.0421672000084,[0.436875],[0.17375],[1],[0],[0],[1.5262068000156432],['target'],292999,001,2024-10-05_14h36.16.451,Visual.Search_priyanshiAU2220101,2024.1.5,None,2024-10-05 14h36.24.601103 +0530,
153,0,153,0,271.0749165000161,,271.0445495999884,10,271.0749165000161,271.0749165000161,0.021792599989566952,272.6929594000103,[-0.33625],[0.333125],[1],[0],[0],[1.6267400999786332],['target'],292999,001,2024-10-05_14h36.16.451,Visual.Search_priyanshiAU2220101,2024.1.5,None,2024-10-05 14h36.24.601103 +0530,
154,0,154,0,272.72708420001436,,272.6951194999856,10,272.72708420001436,272.72708420001436,0.02057800005422905,274.376610300038,[0.19],[-0.085625],[1],[0],[0],[1.660817899974063],['target'],292999,001,2024-10-05_14h36.16.451,Visual.Search_priyanshiAU2220101,2024.1.5,None,2024-10-05 14h36.24.601103 +0530,
155,0,155,0,274.3969397000037,,274.3789754000027,5,274.3969397000037,274.3969397000037,0.011636799958068877,276.2920792000368,[-0.014375],[-0.406875],[1],[0],[0],[1.9015908000292256],['target'],292999,001,2024-10-05_14h36.16.451,Visual.Search_priyanshiAU2220101,2024.1.5,None,2024-10-05 14h36.24.601103 +0530,
156,0,156,0,276.32297209999524,,276.29434190003667,10,276.32297209999524,276.32297209999524,0.021035299985669553,277.99244330002693,[0.200625],[-0.301875],[1],[0],[0],[1.677063100039959],[],292999,001,2024-10-05_14h36.16.451,Visual.Search_priyanshiAU2220101,2024.1.5,None,2024-10-05 14h36.24.601103 +0530,
157,0,157,0,278.02463350002654,,277.9946431000135,10,278.02463350002654,278.02463350002654,0.020464800007175654,281.25890940002864,[0.090625],[0.0025],[1],[0],[0],[3.24396659998456],[],292999,001,2024-10-05_14h36.16.451,Visual.Search_priyanshiAU2220101,2024.1.5,None,2024-10-05 14h36.24.601103 +0530,
158,0,158,0,281.2928249000106,,281.261219899985,10,281.2928249000106,281.2928249000106,0.022928600024897605,282.95956719998503,[-0.070625],[-0.391875],[1],[0],[0],[1.67540830001235],['target'],292999,001,2024-10-05_14h36.16.451,Visual.Search_priyanshiAU2220101,2024.1.5,None,2024-10-05 14h36.24.601103 +0530,
159,0,159,0,282.9921960000065,,282.9619470000034,10,282.9921960000065,282.9921960000065,0.02152950002346188,284.4092444999842,[0.215625],[0.44],[1],[0],[0],[1.4259555999888107],['target'],292999,001,2024-10-05_14h36.16.451,Visual.Search_priyanshiAU2220101,2024.1.5,None,2024-10-05 14h36.24.601103 +0530,
160,0,160,0,284.44162649998907,,284.4114809000166,10,284.44162649998907,284.44162649998907,0.021075399999972433,286.24219980003545,[-0.455],[-0.01875],[1],[0],[0],[1.8097689000423998],['target'],292999,001,2024-10-05_14h36.16.451,Visual.Search_priyanshiAU2220101,2024.1.5,None,2024-10-05 14h36.24.601103 +0530,
161,0,161,0,286.2611226000008,,286.2444136000122,5,286.2611226000008,286.2611226000008,0.010824800003319979,287.5262289000093,[-0.39375],[0.073125],[1],[0],[0],[1.271085900021717],['target'],292999,001,2024-10-05_14h36.16.451,Visual.Search_priyanshiAU2220101,2024.1.5,None,2024-10-05 14h36.24.601103 +0530,
162,0,162,0,287.551388300024,,287.5292702000006,5,287.551388300024,287.551388300024,0.015328100009355694,289.225321200036,[0.45875],[0.3075],[1],[0],[0],[1.6809370999690145],['target'],292999,001,2024-10-05_14h36.16.451,Visual.Search_priyanshiAU2220101,2024.1.5,None,2024-10-05 14h36.24.601103 +0530,
163,0,163,0,289.2435337000061,,289.227472700004,5,289.2435337000061,289.2435337000061,0.010524900048039854,290.75958310003625,[-0.385625],[0.099375],[1],[0],[0],[1.5215860000462271],['target'],292999,001,2024-10-05_14h36.16.451,Visual.Search_priyanshiAU2220101,2024.1.5,None,2024-10-05 14h36.24.601103 +0530,
164,0,164,0,290.7922792999889,,290.7618630999932,10,290.7922792999889,290.7922792999889,0.02181810000911355,292.45849709998583,[-0.134375],[0.069375],[1],[0],[0],[1.6748415000038221],['target'],292999,001,2024-10-05_14h36.16.451,Visual.Search_priyanshiAU2220101,2024.1.5,None,2024-10-05 14h36.24.601103 +0530,
165,0,165,0,292.4918090000283,,292.4608410000219,10,292.4918090000283,292.4918090000283,0.02081070002168417,293.958481699985,[-0.350625],[0.259375],[1],[0],[0],[1.4769688000087626],['target'],292999,001,2024-10-05_14h36.16.451,Visual.Search_priyanshiAU2220101,2024.1.5,None,2024-10-05 14h36.24.601103 +0530,
166,0,166,0,293.9936509000254,,293.96070270001655,10,293.9936509000254,293.9936509000254,0.020081199996639043,295.6593796000234,[-0.163125],[-0.428125],[1],[0],[0],[1.678601699997671],['target'],292999,001,2024-10-05_14h36.16.451,Visual.Search_priyanshiAU2220101,2024.1.5,None,2024-10-05 14h36.24.601103 +0530,
167,0,167,0,295.69432820001384,,295.66172810003627,10,295.69432820001384,295.69432820001384,0.021227899997029454,297.4758343999856,[-0.280625],[0.1825],[1],[0],[0],[1.7930440999916755],['target'],292999,001,2024-10-05_14h36.16.451,Visual.Search_priyanshiAU2220101,2024.1.5,None,2024-10-05 14h36.24.601103 +0530,
168,0,168,0,297.50916780001717,,297.47846950002713,10,297.50916780001717,297.50916780001717,0.022422300011385232,299.9260131000192,[0.185625],[-0.3825],[1],[0],[0],[2.4253388999495655],['target'],292999,001,2024-10-05_14h36.16.451,Visual.Search_priyanshiAU2220101,2024.1.5,None,2024-10-05 14h36.24.601103 +0530,
169,0,169,0,299.9464020000305,,299.92831149999984,5,299.9464020000305,299.9464020000305,0.010801500000525266,301.0760045000352,[0.29875],[0.3725],[1],[0],[0],[1.1367770999786444],['target'],292999,001,2024-10-05_14h36.16.451,Visual.Search_priyanshiAU2220101,2024.1.5,None,2024-10-05 14h36.24.601103 +0530,
170,0,170,0,301.0969080000068,,301.07902910001576,5,301.0969080000068,301.0969080000068,0.011387299979105592,302.5420030000387,[0.37625],[0.39625],[1],[0],[0],[1.4517144999699667],['target'],292999,001,2024-10-05_14h36.16.451,Visual.Search_priyanshiAU2220101,2024.1.5,None,2024-10-05 14h36.24.601103 +0530,
171,0,171,0,302.56196459999774,,302.5443746999954,5,302.56196459999774,302.56196459999774,0.011305299995001405,303.72633000003407,[0.33375],[0.271875],[1],[0],[0],[1.1707938000326976],['target'],292999,001,2024-10-05_14h36.16.451,Visual.Search_priyanshiAU2220101,2024.1.5,None,2024-10-05 14h36.24.601103 +0530,
172,0,172,0,303.74620460002916,,303.7288106000051,5,303.74620460002916,303.74620460002916,0.011579999991226941,305.27512010000646,[-0.005],[0.305625],[1],[0],[0],[1.5348565999884158],['target'],292999,001,2024-10-05_14h36.16.451,Visual.Search_priyanshiAU2220101,2024.1.5,None,2024-10-05 14h36.24.601103 +0530,
173,0,173,0,305.30714550003177,,305.2774014000315,10,305.30714550003177,305.30714550003177,0.02110539999557659,306.84190930001205,[-0.46875],[0.3875],[1],[0],[0],[1.543557700002566],['target'],292999,001,2024-10-05_14h36.16.451,Visual.Search_priyanshiAU2220101,2024.1.5,None,2024-10-05 14h36.24.601103 +0530,
174,0,174,0,306.86138590000337,,306.84420600003796,5,306.86138590000337,306.86138590000337,0.011113300046417862,308.44170760002453,[0.199375],[0.04125],[1],[0],[0],[1.5864669000147842],['target'],292999,001,2024-10-05_14h36.16.451,Visual.Search_priyanshiAU2220101,2024.1.5,None,2024-10-05 14h36.24.601103 +0530,
175,0,175,0,308.4599603000097,,308.44385440001497,5,308.4599603000097,308.4599603000097,0.01081710000289604,309.8082565999939,[0.445625],[0.235625],[1],[0],[0],[1.3536254999926314],['target'],292999,001,2024-10-05_14h36.16.451,Visual.Search_priyanshiAU2220101,2024.1.5,None,2024-10-05 14h36.24.601103 +0530,
176,0,176,0,309.834950199991,,309.812633500027,5,309.834950199991,309.834950199991,0.01669030002085492,311.1262579000322,[0.01125],[0.158125],[1],[0],[0],[1.2974752000300214],['target'],292999,001,2024-10-05_14h36.16.451,Visual.Search_priyanshiAU2220101,2024.1.5,None,2024-10-05 14h36.24.601103 +0530,
177,0,177,0,311.14660350000486,,311.1286654000287,5,311.14660350000486,311.14660350000486,0.010500700038392097,312.8581962999888,[0.38875],[0.438125],[1],[0],[0],[1.7190336000057869],['target'],292999,001,2024-10-05_14h36.16.451,Visual.Search_priyanshiAU2220101,2024.1.5,None,2024-10-05 14h36.24.601103 +0530,
178,0,178,0,312.8778155000182,,312.8605886999867,5,312.8778155000182,312.8778155000182,0.011073300032876432,314.0912672000122,[0.01],[0.2475],[1],[0],[0],[1.2197080999612808],['target'],292999,001,2024-10-05_14h36.16.451,Visual.Search_priyanshiAU2220101,2024.1.5,None,2024-10-05 14h36.24.601103 +0530,
179,0,179,0,314.1225626000087,,314.093549799989,10,314.1225626000087,314.1225626000087,0.020956800028216094,315.44218830001773,[0.315625],[0.376875],[1],[0],[0],[1.3278828000184149],['target'],292999,001,2024-10-05_14h36.16.451,Visual.Search_priyanshiAU2220101,2024.1.5,None,2024-10-05 14h36.24.601103 +0530,
180,0,180,0,315.47497819998534,,315.4445135000278,10,315.47497819998534,315.47497819998534,0.02137820003554225,317.6418013999937,[-0.414375],[0.285625],[1],[0],[0],[2.1758611999684945],['target'],292999,001,2024-10-05_14h36.16.451,Visual.Search_priyanshiAU2220101,2024.1.5,None,2024-10-05 14h36.24.601103 +0530,
181,0,181,0,317.6736297000316,,317.6441938999924,10,317.6736297000316,317.6736297000316,0.020891099993605167,319.39282920002006,[0.381875],[0.16625],[1],[0],[0],[1.7277747999760322],['target'],292999,001,2024-10-05_14h36.16.451,Visual.Search_priyanshiAU2220101,2024.1.5,None,2024-10-05 14h36.24.601103 +0530,
182,0,182,0,319.41229270002805,,319.3950686000171,5,319.41229270002805,319.41229270002805,0.010981899977196008,321.0419288999983,[-0.22375],[0.24625],[1],[0],[0],[1.6358055000309832],[],292999,001,2024-10-05_14h36.16.451,Visual.Search_priyanshiAU2220101,2024.1.5,None,2024-10-05 14h36.24.601103 +0530,
183,0,183,0,321.0748140999931,,321.0446962999995,10,321.0748140999931,321.0748140999931,0.020335900015197694,322.42518170003314,[-0.111875],[0.055],[1],[0],[0],[1.3602404000121169],['target'],292999,001,2024-10-05_14h36.16.451,Visual.Search_priyanshiAU2220101,2024.1.5,None,2024-10-05 14h36.24.601103 +0530,
184,0,184,0,322.4442903000163,,322.42738010000903,5,322.4442903000163,322.4442903000163,0.011074799986090511,323.9079450999852,[-0.3625],[0.361875],[1],[0],[0],[1.4696182999759912],['target'],292999,001,2024-10-05_14h36.16.451,Visual.Search_priyanshiAU2220101,2024.1.5,None,2024-10-05 14h36.24.601103 +0530,
185,0,185,0,323.9280560000334,,323.9103338000132,5,323.9280560000334,323.9280560000334,0.011225399968679994,325.57408460002625,[0.28125],[-0.14875],[1],[0],[0],[1.652664299996104],['target'],292999,001,2024-10-05_14h36.16.451,Visual.Search_priyanshiAU2220101,2024.1.5,None,2024-10-05 14h36.24.601103 +0530,
186,0,186,0,325.5929943000083,,325.57630010001594,5,325.5929943000083,325.5929943000083,0.010862900002393872,327.32505039998796,[0.255],[0.306875],[1],[0],[0],[1.7379549000179395],['target'],292999,001,2024-10-05_14h36.16.451,Visual.Search_priyanshiAU2220101,2024.1.5,None,2024-10-05 14h36.24.601103 +0530,
187,0,187,0,327.34467530000256,,327.32729980000295,5,327.34467530000256,327.34467530000256,0.011436300002969801,328.5749703000183,[0.14625],[0.226875],[1],[0],[0],[1.2362990999827161],['target'],292999,001,2024-10-05_14h36.16.451,Visual.Search_priyanshiAU2220101,2024.1.5,None,2024-10-05 14h36.24.601103 +0530,
188,0,188,0,328.5959688000148,,328.57726330001606,5,328.5959688000148,328.5959688000148,0.012218300020322204,330.17420619999757,[0.424375],[0.228125],[1],[0],[0],[1.584845100005623],['target'],292999,001,2024-10-05_14h36.16.451,Visual.Search_priyanshiAU2220101,2024.1.5,None,2024-10-05 14h36.24.601103 +0530,
189,0,189,0,330.1956913000322,,330.1765305000008,5,330.1956913000322,330.1956913000322,0.011342800047714263,331.8089298999985,[0.3325],[-0.161875],[1],[0],[0],[1.6212182000163011],['target'],292999,001,2024-10-05_14h36.16.451,Visual.Search_priyanshiAU2220101,2024.1.5,None,2024-10-05 14h36.24.601103 +0530,
190,0,190,0,331.82816600002116,,331.81123500003014,5,331.82816600002116,331.82816600002116,0.011090699990745634,333.07554719998734,[0.28375],[-0.32125],[1],[0],[0],[1.253440500004217],['target'],292999,001,2024-10-05_14h36.16.451,Visual.Search_priyanshiAU2220101,2024.1.5,None,2024-10-05 14h36.24.601103 +0530,
191,0,191,0,333.1091263000271,,333.0778630999848,10,333.1091263000271,333.1091263000271,0.022178600018378347,334.40851610002574,[0.385],[0.344375],[1],[0],[0],[1.3085821000277065],['target'],292999,001,2024-10-05_14h36.16.451,Visual.Search_priyanshiAU2220101,2024.1.5,None,2024-10-05 14h36.24.601103 +0530,
192,0,192,0,334.4320044000051,,334.41084720002254,5,334.4320044000051,334.4320044000051,0.011837799975182861,336.45783550001215,[-0.196875],[0.480625],[1],[0],[0],[2.035320400027558],['target'],292999,001,2024-10-05_14h36.16.451,Visual.Search_priyanshiAU2220101,2024.1.5,None,2024-10-05 14h36.24.601103 +0530,
193,0,193,0,336.4892556000268,,336.46017879998544,10,336.4892556000268,336.4892556000268,0.02113230002578348,338.1743829000043,[0.235625],[-0.0475],[1],[0],[0],[1.693240299995523],['target'],292999,001,2024-10-05_14h36.16.451,Visual.Search_priyanshiAU2220101,2024.1.5,None,2024-10-05 14h36.24.601103 +0530,
194,0,194,0,338.1935472000041,,338.17671050003264,5,338.1935472000041,338.1935472000041,0.011235899990424514,339.50771560001886,[-0.224375],[-0.15],[1],[0],[0],[1.319870000006631],['target'],292999,001,2024-10-05_14h36.16.451,Visual.Search_priyanshiAU2220101,2024.1.5,None,2024-10-05 14h36.24.601103 +0530,
195,0,195,0,339.54008479998447,,339.51007000001846,10,339.54008479998447,339.54008479998447,0.020513699972070754,341.2903542999993,[-0.2825],[0.354375],[1],[0],[0],[1.7598743000417016],['target'],292999,001,2024-10-05_14h36.16.451,Visual.Search_priyanshiAU2220101,2024.1.5,None,2024-10-05 14h36.24.601103 +0530,
196,0,196,0,341.3230107999989,,341.29271770000923,10,341.3230107999989,341.3230107999989,0.021388799999840558,342.7248323999811,[0.3725],[0.2575],[1],[0],[0],[1.4109035999863409],['target'],292999,001,2024-10-05_14h36.16.451,Visual.Search_priyanshiAU2220101,2024.1.5,None,2024-10-05 14h36.24.601103 +0530,
197,0,197,0,342.7451095000142,,342.7271502999938,5,342.7451095000142,342.7451095000142,0.01174480002373457,344.00806830002693,[0.366875],[0.23],[1],[0],[0],[1.2692944000009447],['target'],292999,001,2024-10-05_14h36.16.451,Visual.Search_priyanshiAU2220101,2024.1.5,None,2024-10-05 14h36.24.601103 +0530,
198,0,198,0,344.0270770000061,,344.01032800000394,5,344.0270770000061,344.0270770000061,0.010597599961329252,345.7072330000228,[-0.343125],[-0.2275],[1],[0],[0],[1.6863604999962263],['target'],292999,001,2024-10-05_14h36.16.451,Visual.Search_priyanshiAU2220101,2024.1.5,None,2024-10-05 14h36.24.601103 +0530,
199,0,199,0,345.7253638000111,,345.70942670002114,5,345.7253638000111,345.7253638000111,0.0106600999715738,347.0748595999903,[-0.4675],[-0.065625],[1],[0],[0],[1.3549038000055589],['target'],292999,001,2024-10-05_14h36.16.451,Visual.Search_priyanshiAU2220101,2024.1.5,None,2024-10-05 14h36.24.601103 +0530,
