trials.thisRepN,trials.thisTrialN,trials.thisN,trials.thisIndex,thisRow.t,notes,trial.started,num_distr,fixation.started,target.started,mouse.started,trial.stopped,mouse.x,mouse.y,mouse.leftButton,mouse.midButton,mouse.rightButton,mouse.time,mouse.clicked_name,participant,session,date,expName,psychopyVersion,frameRate,expStart,
0,0,0,0,0.042044299974804744,,0.006331299984594807,5,0.042044299974804744,0.042044299974804744,0.024203200009651482,2.8042661999934353,[-0.355625],[-0.186875],[1],[0],[0],[2.779270400002133],['target'],487467,001,2024-10-04_11h20.40.654,Visual.Search_priyanshiAU2220101,2024.1.5,None,2024-10-04 11h20.49.226122 +0530,
1,0,1,0,2.830890199984424,,2.8085806999879424,5,2.830890199984424,2.830890199984424,0.014610800018999726,4.797560599981807,[-0.280625],[-0.43],[1],[0],[0],[1.97456040000543],['target'],487467,001,2024-10-04_11h20.40.654,Visual.Search_priyanshiAU2220101,2024.1.5,None,2024-10-04 11h20.49.226122 +0530,
2,0,2,0,4.826230799983023,,4.801067699998384,5,4.826230799983023,4.826230799983023,0.015744300006190315,6.603933899983531,[-0.33375],[0.384375],[1],[0],[0],[1.787723300018115],['target'],487467,001,2024-10-04_11h20.40.654,Visual.Search_priyanshiAU2220101,2024.1.5,None,2024-10-04 11h20.49.226122 +0530,
3,0,3,0,6.648823099996662,,6.607715199992526,10,6.648823099996662,6.648823099996662,0.029755499999737367,8.736564399994677,[0.44875],[0.453125],[1],[0],[0],[2.0994213999947533],['target'],487467,001,2024-10-04_11h20.40.654,Visual.Search_priyanshiAU2220101,2024.1.5,None,2024-10-04 11h20.49.226122 +0530,
4,0,4,0,8.769573499972466,,8.740724399976898,5,8.769573499972466,8.769573499972466,0.02018540000426583,10.40270629999577,[-0.26875],[0.459375],[1],[0],[0],[1.6423161000129767],['target'],487467,001,2024-10-04_11h20.40.654,Visual.Search_priyanshiAU2220101,2024.1.5,None,2024-10-04 11h20.49.226122 +0530,
5,0,5,0,10.44777069997508,,10.406299099995522,10,10.44777069997508,10.44777069997508,0.0315386000147555,12.536476299981587,[0.175],[-0.304375],[1],[0],[0],[2.0989416999800596],['target'],487467,001,2024-10-04_11h20.40.654,Visual.Search_priyanshiAU2220101,2024.1.5,None,2024-10-04 11h20.49.226122 +0530,
6,0,6,0,12.59070079997764,,12.540071199997328,10,12.59070079997764,12.59070079997764,0.03511440000147559,14.386536699981662,[-0.34375],[-0.45875],[1],[0],[0],[1.811691000009887],[],487467,001,2024-10-04_11h20.40.654,Visual.Search_priyanshiAU2220101,2024.1.5,None,2024-10-04 11h20.49.226122 +0530,
7,0,7,0,14.413411199988332,,14.389565299992682,5,14.413411199988332,14.413411199988332,0.014165100001264364,16.303422699973453,[0.343125],[-0.280625],[1],[0],[0],[1.8997506000159774],['target'],487467,001,2024-10-04_11h20.40.654,Visual.Search_priyanshiAU2220101,2024.1.5,None,2024-10-04 11h20.49.226122 +0530,
8,0,8,0,16.32879019997199,,16.30624129998614,5,16.32879019997199,16.32879019997199,0.01308109998353757,18.15269079999416,[0.44125],[-0.41875],[1],[0],[0],[1.833559199993033],['target'],487467,001,2024-10-04_11h20.40.654,Visual.Search_priyanshiAU2220101,2024.1.5,None,2024-10-04 11h20.49.226122 +0530,
9,0,9,0,18.18112489997293,,18.156223999976646,5,18.18112489997293,18.18112489997293,0.01619120000395924,19.85426529997494,[-0.143125],[-0.159375],[1],[0],[0],[1.6822073999792337],['target'],487467,001,2024-10-04_11h20.40.654,Visual.Search_priyanshiAU2220101,2024.1.5,None,2024-10-04 11h20.49.226122 +0530,
10,0,10,0,19.88082689998555,,19.857812499976717,5,19.88082689998555,19.88082689998555,0.015159300004597753,21.48721029999433,[0.0425],[-0.041875],[1],[0],[0],[1.6144215000094846],['target'],487467,001,2024-10-04_11h20.40.654,Visual.Search_priyanshiAU2220101,2024.1.5,None,2024-10-04 11h20.49.226122 +0530,
11,0,11,0,21.51739539997652,,21.492358999996213,5,21.51739539997652,21.51739539997652,0.0174653000140097,23.487342799984617,[0.356875],[0.1925],[1],[0],[0],[1.9781778999895323],['target'],487467,001,2024-10-04_11h20.40.654,Visual.Search_priyanshiAU2220101,2024.1.5,None,2024-10-04 11h20.49.226122 +0530,
12,0,12,0,23.53564569997252,,23.49268079997273,10,23.53564569997252,23.53564569997252,0.028665099991485476,25.069518699980108,[-0.3625],[-0.091875],[1],[0],[0],[1.548776599986013],['target'],487467,001,2024-10-04_11h20.40.654,Visual.Search_priyanshiAU2220101,2024.1.5,None,2024-10-04 11h20.49.226122 +0530,
13,0,13,0,25.121446499979356,,25.074783099989872,10,25.121446499979356,25.121446499979356,0.033036300010280684,26.653097299975343,[-0.356875],[0.2525],[1],[0],[0],[1.545934900001157],['target'],487467,001,2024-10-04_11h20.40.654,Visual.Search_priyanshiAU2220101,2024.1.5,None,2024-10-04 11h20.49.226122 +0530,
14,0,14,0,26.684919399995124,,26.658302099996945,5,26.684919399995124,26.684919399995124,0.01943590000155382,28.020533899980364,[-0.495],[0.004375],[1],[0],[0],[1.34338750000461],['target'],487467,001,2024-10-04_11h20.40.654,Visual.Search_priyanshiAU2220101,2024.1.5,None,2024-10-04 11h20.49.226122 +0530,
15,0,15,0,28.067771399975754,,28.023907299997518,10,28.067771399975754,28.067771399975754,0.032486300013260916,30.25382119999267,[-0.33375],[-0.474375],[1],[0],[0],[2.197732000000542],['target'],487467,001,2024-10-04_11h20.40.654,Visual.Search_priyanshiAU2220101,2024.1.5,None,2024-10-04 11h20.49.226122 +0530,
16,0,16,0,30.30132049997337,,30.256620399974054,10,30.30132049997337,30.30132049997337,0.0287683000206016,32.436894199985545,[0.50375],[0.4775],[1],[0],[0],[2.1516746999986935],['target'],487467,001,2024-10-04_11h20.40.654,Visual.Search_priyanshiAU2220101,2024.1.5,None,2024-10-04 11h20.49.226122 +0530,
17,0,17,0,32.479084499995224,,32.43973909999477,10,32.479084499995224,32.479084499995224,0.02507470001000911,33.68726569999126,[0.49875],[0.296875],[1],[0],[0],[1.2225684000004549],['target'],487467,001,2024-10-04_11h20.40.654,Visual.Search_priyanshiAU2220101,2024.1.5,None,2024-10-04 11h20.49.226122 +0530,
18,0,18,0,33.73135509999702,,33.69089689999237,10,33.73135509999702,33.73135509999702,0.029034200008027256,36.21986669997568,[-0.4175],[-0.47125],[1],[0],[0],[2.5002706999948714],['target'],487467,001,2024-10-04_11h20.40.654,Visual.Search_priyanshiAU2220101,2024.1.5,None,2024-10-04 11h20.49.226122 +0530,
19,0,19,0,36.26340439997148,,36.222957699996186,10,36.26340439997148,36.26340439997148,0.02603199999430217,38.00360199998249,[0.251875],[-0.221875],[1],[0],[0],[1.7546704999986105],['target'],487467,001,2024-10-04_11h20.40.654,Visual.Search_priyanshiAU2220101,2024.1.5,None,2024-10-04 11h20.49.226122 +0530,
20,0,20,0,38.0738572999835,,38.009035999974,10,38.0738572999835,38.0738572999835,0.048944300011498854,40.08615769998869,[-0.474375],[0.358125],[1],[0],[0],[2.0288613000011537],['target'],487467,001,2024-10-04_11h20.40.654,Visual.Search_priyanshiAU2220101,2024.1.5,None,2024-10-04 11h20.49.226122 +0530,
21,0,21,0,40.11864779997268,,40.088905899989186,5,40.11864779997268,40.11864779997268,0.019873199984431267,42.48554609998246,[-0.293125],[-0.473125],[1],[0],[0],[2.3769376999989618],['target'],487467,001,2024-10-04_11h20.40.654,Visual.Search_priyanshiAU2220101,2024.1.5,None,2024-10-04 11h20.49.226122 +0530,
22,0,22,0,42.51438939999207,,42.489707999979146,5,42.51438939999207,42.51438939999207,0.018470099981641397,43.85289649997139,[-0.139375],[-0.190625],[1],[0],[0],[1.3449924999731593],['target'],487467,001,2024-10-04_11h20.40.654,Visual.Search_priyanshiAU2220101,2024.1.5,None,2024-10-04 11h20.49.226122 +0530,
23,0,23,0,43.906779699987965,,43.8586991999764,10,43.906779699987965,43.906779699987965,0.03326630001538433,45.335130699997535,[-0.42],[-0.07],[1],[0],[0],[1.4440456999873277],['target'],487467,001,2024-10-04_11h20.40.654,Visual.Search_priyanshiAU2220101,2024.1.5,None,2024-10-04 11h20.49.226122 +0530,
24,0,24,0,45.36219789998722,,45.33878389999154,5,45.36219789998722,45.36219789998722,0.015163900010520592,47.3204979999864,[-0.430625],[0.305625],[1],[0],[0],[1.9668748000112828],['target'],487467,001,2024-10-04_11h20.40.654,Visual.Search_priyanshiAU2220101,2024.1.5,None,2024-10-04 11h20.49.226122 +0530,
25,0,25,0,47.36633669998264,,47.32442229997832,10,47.36633669998264,47.36633669998264,0.03004670000518672,48.601658799976576,[-0.34],[0.35375],[1],[0],[0],[1.2474911999888718],['target'],487467,001,2024-10-04_11h20.40.654,Visual.Search_priyanshiAU2220101,2024.1.5,None,2024-10-04 11h20.49.226122 +0530,
26,0,26,0,48.62820089998422,,48.60455959997489,5,48.62820089998422,48.62820089998422,0.013947300001746044,50.52001829998335,[0.263125],[-0.4625],[1],[0],[0],[1.9016961999877822],['target'],487467,001,2024-10-04_11h20.40.654,Visual.Search_priyanshiAU2220101,2024.1.5,None,2024-10-04 11h20.49.226122 +0530,
27,0,27,0,50.54706879999139,,50.5235251999984,5,50.54706879999139,50.54706879999139,0.015504200011491776,52.05290629999945,[0.135],[-0.350625],[1],[0],[0],[1.5139392999990378],['target'],487467,001,2024-10-04_11h20.40.654,Visual.Search_priyanshiAU2220101,2024.1.5,None,2024-10-04 11h20.49.226122 +0530,
28,0,28,0,52.10974479999277,,52.05808569997316,10,52.10974479999277,52.10974479999277,0.030892099981429055,53.45191989999148,[0.100625],[-0.228125],[1],[0],[0],[1.363662599993404],['target'],487467,001,2024-10-04_11h20.40.654,Visual.Search_priyanshiAU2220101,2024.1.5,None,2024-10-04 11h20.49.226122 +0530,
29,0,29,0,53.49850719998358,,53.456180799985304,10,53.49850719998358,53.49850719998358,0.03217890000087209,54.885897399974056,[0.11875],[0.035625],[1],[0],[0],[1.3981396999733988],['target'],487467,001,2024-10-04_11h20.40.654,Visual.Search_priyanshiAU2220101,2024.1.5,None,2024-10-04 11h20.49.226122 +0530,
30,0,30,0,54.912042399984784,,54.88878559999284,5,54.912042399984784,54.912042399984784,0.013934099988546222,57.10298209998291,[-0.09],[-0.36875],[1],[0],[0],[2.2003283000085503],['target'],487467,001,2024-10-04_11h20.40.654,Visual.Search_priyanshiAU2220101,2024.1.5,None,2024-10-04 11h20.49.226122 +0530,
31,0,31,0,57.13635779998731,,57.10676669998793,5,57.13635779998731,57.13635779998731,0.01983150001615286,58.58558179999818,[-0.168125],[0.231875],[1],[0],[0],[1.459226100007072],['target'],487467,001,2024-10-04_11h20.40.654,Visual.Search_priyanshiAU2220101,2024.1.5,None,2024-10-04 11h20.49.226122 +0530,
32,0,32,0,58.61602779998793,,58.58931579999626,5,58.61602779998793,58.61602779998793,0.01927399999112822,60.035089399985736,[-0.35],[-0.21625],[1],[0],[0],[1.426712700020289],['target'],487467,001,2024-10-04_11h20.40.654,Visual.Search_priyanshiAU2220101,2024.1.5,None,2024-10-04 11h20.49.226122 +0530,
33,0,33,0,60.062849699985236,,60.03894009999931,5,60.062849699985236,60.062849699985236,0.017583400011062622,61.601913599995896,[0.075],[-0.0875],[1],[0],[0],[1.545605199993588],['target'],487467,001,2024-10-04_11h20.40.654,Visual.Search_priyanshiAU2220101,2024.1.5,None,2024-10-04 11h20.49.226122 +0530,
34,0,34,0,61.63472859998001,,61.606876899983035,5,61.63472859998001,61.63472859998001,0.018567799997981638,62.701931999996305,[-0.02875],[-0.201875],[1],[0],[0],[1.0771981999860145],[],487467,001,2024-10-04_11h20.40.654,Visual.Search_priyanshiAU2220101,2024.1.5,None,2024-10-04 11h20.49.226122 +0530,
35,0,35,0,62.72908959997585,,62.70556469997973,5,62.72908959997585,62.72908959997585,0.016185600019525737,63.8537613999797,[-0.271875],[0.199375],[1],[0],[0],[1.1320035999815445],['target'],487467,001,2024-10-04_11h20.40.654,Visual.Search_priyanshiAU2220101,2024.1.5,None,2024-10-04 11h20.49.226122 +0530,
36,0,36,0,63.90692239999771,,63.86079379997682,10,63.90692239999771,63.90692239999771,0.03351199999451637,65.8014585999772,[0.480625],[-0.459375],[1],[0],[0],[1.9080523999873549],['target'],487467,001,2024-10-04_11h20.40.654,Visual.Search_priyanshiAU2220101,2024.1.5,None,2024-10-04 11h20.49.226122 +0530,
37,0,37,0,65.85265899999649,,65.8052522999933,10,65.85265899999649,65.85265899999649,0.03328080000937916,67.43645489998744,[0.2575],[-0.293125],[1],[0],[0],[1.598216999991564],[],487467,001,2024-10-04_11h20.40.654,Visual.Search_priyanshiAU2220101,2024.1.5,None,2024-10-04 11h20.49.226122 +0530,
38,0,38,0,67.48725079998258,,67.44121929997345,10,67.48725079998258,67.48725079998258,0.03268870001193136,69.11886519999825,[-0.385],[0.4075],[1],[0],[0],[1.6453590000164695],['target'],487467,001,2024-10-04_11h20.40.654,Visual.Search_priyanshiAU2220101,2024.1.5,None,2024-10-04 11h20.49.226122 +0530,
39,0,39,0,69.16371929997695,,69.12192809997941,10,69.16371929997695,69.16371929997695,0.027167299995198846,70.48680229997262,[-0.081875],[-0.28375],[1],[0],[0],[1.3378188000060618],['target'],487467,001,2024-10-04_11h20.40.654,Visual.Search_priyanshiAU2220101,2024.1.5,None,2024-10-04 11h20.49.226122 +0530,
40,0,40,0,70.53711959999055,,70.49059729999863,10,70.53711959999055,70.53711959999055,0.034279099985724315,72.78527879997273,[0.39],[0.361875],[1],[0],[0],[2.260536799993133],['target'],487467,001,2024-10-04_11h20.40.654,Visual.Search_priyanshiAU2220101,2024.1.5,None,2024-10-04 11h20.49.226122 +0530,
41,0,41,0,72.82325849999324,,72.79129149997607,5,72.82325849999324,72.82325849999324,0.022558099997695535,74.01958829999785,[-0.0975],[0.185625],[1],[0],[0],[1.2063542999967467],['target'],487467,001,2024-10-04_11h20.40.654,Visual.Search_priyanshiAU2220101,2024.1.5,None,2024-10-04 11h20.49.226122 +0530,
42,0,42,0,74.04553019997547,,74.02304279999225,5,74.04553019997547,74.04553019997547,0.01521599999978207,75.41872289997991,[0.378125],[0.2425],[1],[0],[0],[1.3807052000192925],['target'],487467,001,2024-10-04_11h20.40.654,Visual.Search_priyanshiAU2220101,2024.1.5,None,2024-10-04 11h20.49.226122 +0530,
43,0,43,0,75.44658979997621,,75.42446799998288,5,75.44658979997621,75.44658979997621,0.015455900022061542,76.6844785999856,[0.145625],[-0.168125],[1],[0],[0],[1.2452196999802254],[],487467,001,2024-10-04_11h20.40.654,Visual.Search_priyanshiAU2220101,2024.1.5,None,2024-10-04 11h20.49.226122 +0530,
44,0,44,0,76.71201589997509,,76.68741799998679,5,76.71201589997509,76.71201589997509,0.015496199979679659,78.13493639999069,[-0.269375],[-0.410625],[1],[0],[0],[1.4321496000047773],['target'],487467,001,2024-10-04_11h20.40.654,Visual.Search_priyanshiAU2220101,2024.1.5,None,2024-10-04 11h20.49.226122 +0530,
45,0,45,0,78.18080799997551,,78.14177159999963,5,78.18080799997551,78.18080799997551,0.031095100013772026,79.45171689998824,[-0.29625],[0.313125],[1],[0],[0],[1.2799764999945182],['target'],487467,001,2024-10-04_11h20.40.654,Visual.Search_priyanshiAU2220101,2024.1.5,None,2024-10-04 11h20.49.226122 +0530,
46,0,46,0,79.48309989998234,,79.45492949997424,5,79.48309989998234,79.48309989998234,0.018397900013951585,80.83523049997166,[-0.093125],[-0.39],[1],[0],[0],[1.3620705000066664],['target'],487467,001,2024-10-04_11h20.40.654,Visual.Search_priyanshiAU2220101,2024.1.5,None,2024-10-04 11h20.49.226122 +0530,
47,0,47,0,80.88613149998127,,80.8398778999981,10,80.88613149998127,80.88613149998127,0.03181559999939054,82.43637859998853,[-0.469375],[0.006875],[1],[0],[0],[1.5648314999998547],['target'],487467,001,2024-10-04_11h20.40.654,Visual.Search_priyanshiAU2220101,2024.1.5,None,2024-10-04 11h20.49.226122 +0530,
48,0,48,0,82.4641971999954,,82.44049749997794,5,82.4641971999954,82.4641971999954,0.017049099988071248,84.36803049998707,[0.300625],[-0.263125],[1],[0],[0],[1.9109047999954782],['target'],487467,001,2024-10-04_11h20.40.654,Visual.Search_priyanshiAU2220101,2024.1.5,None,2024-10-04 11h20.49.226122 +0530,
49,0,49,0,84.4237196999893,,84.37170859999605,10,84.4237196999893,84.4237196999893,0.037172599986661226,85.85193599999184,[-0.309375],[-0.049375],[1],[0],[0],[1.4434156000206713],['target'],487467,001,2024-10-04_11h20.40.654,Visual.Search_priyanshiAU2220101,2024.1.5,None,2024-10-04 11h20.49.226122 +0530,
50,0,50,0,85.90392549999524,,85.85567289998289,10,85.90392549999524,85.90392549999524,0.035428700008196756,87.3353356999869,[-0.348125],[-0.43125],[1],[0],[0],[1.4444960000109859],['target'],487467,001,2024-10-04_11h20.40.654,Visual.Search_priyanshiAU2220101,2024.1.5,None,2024-10-04 11h20.49.226122 +0530,
51,0,51,0,87.36427649998222,,87.33980479999445,5,87.36427649998222,87.36427649998222,0.016506099986145273,89.06923769999412,[-0.48375],[0.255625],[1],[0],[0],[1.7129261999798473],['target'],487467,001,2024-10-04_11h20.40.654,Visual.Search_priyanshiAU2220101,2024.1.5,None,2024-10-04 11h20.49.226122 +0530,
52,0,52,0,89.10982999997213,,89.07311879997724,10,89.10982999997213,89.10982999997213,0.02609709999524057,90.80203699998674,[0.485],[-0.454375],[1],[0],[0],[1.703114200005075],['target'],487467,001,2024-10-04_11h20.40.654,Visual.Search_priyanshiAU2220101,2024.1.5,None,2024-10-04 11h20.49.226122 +0530,
53,0,53,0,90.85436199998367,,90.80580269999336,10,90.85436199998367,90.85436199998367,0.03460229997290298,92.8842359999835,[-0.4125],[0.330625],[1],[0],[0],[2.0441532999975607],['target'],487467,001,2024-10-04_11h20.40.654,Visual.Search_priyanshiAU2220101,2024.1.5,None,2024-10-04 11h20.49.226122 +0530,
54,0,54,0,92.91305329999886,,92.88794179999968,5,92.91305329999886,92.91305329999886,0.01634070000727661,94.40163179999217,[-0.473125],[-0.325625],[1],[0],[0],[1.4976018000161275],['target'],487467,001,2024-10-04_11h20.40.654,Visual.Search_priyanshiAU2220101,2024.1.5,None,2024-10-04 11h20.49.226122 +0530,
55,0,55,0,94.4325722999929,,94.40690839997842,5,94.4325722999929,94.4325722999929,0.01838069999939762,96.00215849999222,[0.200625],[-0.159375],[1],[0],[0],[1.57736890000524],['target'],487467,001,2024-10-04_11h20.40.654,Visual.Search_priyanshiAU2220101,2024.1.5,None,2024-10-04 11h20.49.226122 +0530,
56,0,56,0,96.03090909999446,,96.0070251999714,5,96.03090909999446,96.03090909999446,0.015554200013866648,98.28533209997113,[0.409375],[0.10875],[1],[0],[0],[2.2630935999914072],['target'],487467,001,2024-10-04_11h20.40.654,Visual.Search_priyanshiAU2220101,2024.1.5,None,2024-10-04 11h20.49.226122 +0530,
57,0,57,0,98.3336280999938,,98.28897949997918,10,98.3336280999938,98.3336280999938,0.029563600022811443,99.75092769999173,[-0.036875],[0.21625],[1],[0],[0],[1.4325940000126138],['target'],487467,001,2024-10-04_11h20.40.654,Visual.Search_priyanshiAU2220101,2024.1.5,None,2024-10-04 11h20.49.226122 +0530,
58,0,58,0,99.80441889999202,,99.75458269999945,10,99.80441889999202,99.80441889999202,0.03677239999524318,102.0177625999786,[0.281875],[-0.3275],[1],[0],[0],[2.2268642999988515],['target'],487467,001,2024-10-04_11h20.40.654,Visual.Search_priyanshiAU2220101,2024.1.5,None,2024-10-04 11h20.49.226122 +0530,
59,0,59,0,102.04467379997368,,102.02140759999747,5,102.04467379997368,102.04467379997368,0.01533170000766404,103.56839359999867,[-0.2525],[-0.243125],[1],[0],[0],[1.5317996999947354],['target'],487467,001,2024-10-04_11h20.40.654,Visual.Search_priyanshiAU2220101,2024.1.5,None,2024-10-04 11h20.49.226122 +0530,
60,0,60,0,103.59930429997621,,103.57394049997674,5,103.59930429997621,103.59930429997621,0.018393699981970713,105.00130549998721,[-0.328125],[-0.008125],[1],[0],[0],[1.4096488999784924],['target'],487467,001,2024-10-04_11h20.40.654,Visual.Search_priyanshiAU2220101,2024.1.5,None,2024-10-04 11h20.49.226122 +0530,
61,0,61,0,105.05357769998955,,105.00669879998895,10,105.05357769998955,105.05357769998955,0.03217869999934919,106.9018769999966,[0.308125],[-0.3375],[1],[0],[0],[1.8636552999960259],['target'],487467,001,2024-10-04_11h20.40.654,Visual.Search_priyanshiAU2220101,2024.1.5,None,2024-10-04 11h20.49.226122 +0530,
62,0,62,0,106.9612595999788,,106.90723849998903,10,106.9612595999788,106.9612595999788,0.03803560000960715,108.66700749998563,[-0.4675],[0.184375],[1],[0],[0],[1.722400300001027],['target'],487467,001,2024-10-04_11h20.40.654,Visual.Search_priyanshiAU2220101,2024.1.5,None,2024-10-04 11h20.49.226122 +0530,
63,0,63,0,108.71950589999324,,108.67072569997981,10,108.71950589999324,108.71950589999324,0.03409130001091398,110.06850919997669,[-0.409375],[-0.245625],[1],[0],[0],[1.3639508000051137],['target'],487467,001,2024-10-04_11h20.40.654,Visual.Search_priyanshiAU2220101,2024.1.5,None,2024-10-04 11h20.49.226122 +0530,
64,0,64,0,110.10172129998682,,110.07389319999493,5,110.10172129998682,110.10172129998682,0.018795300013152882,111.9182817999972,[-0.281875],[-0.066875],[1],[0],[0],[1.8262510999920778],['target'],487467,001,2024-10-04_11h20.40.654,Visual.Search_priyanshiAU2220101,2024.1.5,None,2024-10-04 11h20.49.226122 +0530,
65,0,65,0,111.94735679999576,,111.9222992999712,5,111.94735679999576,111.94735679999576,0.017918199999257922,113.26715139998123,[-0.186875],[0.040625],[1],[0],[0],[1.32710969998152],['target'],487467,001,2024-10-04_11h20.40.654,Visual.Search_priyanshiAU2220101,2024.1.5,None,2024-10-04 11h20.49.226122 +0530,
66,0,66,0,113.29117329997825,,113.27001679997193,5,113.29117329997825,113.29117329997825,0.013886300002923235,116.25036909998744,[-0.2325],[0.28],[1],[0],[0],[2.9664703000162262],['target'],487467,001,2024-10-04_11h20.40.654,Visual.Search_priyanshiAU2220101,2024.1.5,None,2024-10-04 11h20.49.226122 +0530,
67,0,67,0,116.27980799999204,,116.25557659997139,5,116.27980799999204,116.27980799999204,0.01752449999912642,117.63358779999544,[0.3175],[0.340625],[1],[0],[0],[1.3609970999823418],['target'],487467,001,2024-10-04_11h20.40.654,Visual.Search_priyanshiAU2220101,2024.1.5,None,2024-10-04 11h20.49.226122 +0530,
68,0,68,0,117.6818801999907,,117.63654029997997,10,117.6818801999907,117.6818801999907,0.03171979999751784,119.26747109999997,[0.213125],[0.12625],[1],[0],[0],[1.599263999989489],['target'],487467,001,2024-10-04_11h20.40.654,Visual.Search_priyanshiAU2220101,2024.1.5,None,2024-10-04 11h20.49.226122 +0530,
69,0,69,0,119.33053049998125,,119.27261109999381,10,119.33053049998125,119.33053049998125,0.04261989999213256,120.8834310999955,[0.376875],[-0.418125],[1],[0],[0],[1.568917099997634],['target'],487467,001,2024-10-04_11h20.40.654,Visual.Search_priyanshiAU2220101,2024.1.5,None,2024-10-04 11h20.49.226122 +0530,
70,0,70,0,120.93434879998676,,120.88717819997692,10,120.93434879998676,120.93434879998676,0.03250809997553006,121.98405019997153,[0.12375],[-0.076875],[1],[0],[0],[1.0646694999886677],['target'],487467,001,2024-10-04_11h20.40.654,Visual.Search_priyanshiAU2220101,2024.1.5,None,2024-10-04 11h20.49.226122 +0530,
71,0,71,0,122.0333391999884,,121.98778729999322,10,122.0333391999884,122.0333391999884,0.030477099993731827,123.76800849998835,[0.395625],[-0.328125],[1],[0],[0],[1.750006400019629],[],487467,001,2024-10-04_11h20.40.654,Visual.Search_priyanshiAU2220101,2024.1.5,None,2024-10-04 11h20.49.226122 +0530,
72,0,72,0,123.81309859998873,,123.77111759997206,10,123.81309859998873,123.81309859998873,0.02761399999144487,125.51779269997496,[0.165],[0.09125],[1],[0],[0],[1.7191723000141792],['target'],487467,001,2024-10-04_11h20.40.654,Visual.Search_priyanshiAU2220101,2024.1.5,None,2024-10-04 11h20.49.226122 +0530,
73,0,73,0,125.54906099999789,,125.52224259998184,5,125.54906099999789,125.54906099999789,0.018094099999871105,127.40215829998488,[-0.156875],[-0.46875],[1],[0],[0],[1.8619076999893878],['target'],487467,001,2024-10-04_11h20.40.654,Visual.Search_priyanshiAU2220101,2024.1.5,None,2024-10-04 11h20.49.226122 +0530,
74,0,74,0,127.4498432999826,,127.40670539997518,10,127.4498432999826,127.4498432999826,0.028887699998449534,129.44982639999944,[0.196875],[0.421875],[1],[0],[0],[2.014544300007401],['target'],487467,001,2024-10-04_11h20.40.654,Visual.Search_priyanshiAU2220101,2024.1.5,None,2024-10-04 11h20.49.226122 +0530,
75,0,75,0,129.47542339999927,,129.45340809997288,5,129.47542339999927,129.47542339999927,0.015344400017056614,131.4513265999849,[0.034375],[0.304375],[1],[0],[0],[1.9827368000114802],['target'],487467,001,2024-10-04_11h20.40.654,Visual.Search_priyanshiAU2220101,2024.1.5,None,2024-10-04 11h20.49.226122 +0530,
76,0,76,0,131.4814658999967,,131.4542348999821,5,131.4814658999967,131.4814658999967,0.0174768999859225,132.7333886999986,[-0.10625],[0.36875],[1],[0],[0],[1.261808099981863],['target'],487467,001,2024-10-04_11h20.40.654,Visual.Search_priyanshiAU2220101,2024.1.5,None,2024-10-04 11h20.49.226122 +0530,
77,0,77,0,132.77939539999352,,132.73718649998773,10,132.77939539999352,132.77939539999352,0.03104709999752231,136.3669393999735,[-0.334375],[0.0575],[1],[0],[0],[3.599057499988703],['target'],487467,001,2024-10-04_11h20.40.654,Visual.Search_priyanshiAU2220101,2024.1.5,None,2024-10-04 11h20.49.226122 +0530,
78,0,78,0,136.39639749997878,,136.37053729998297,5,136.39639749997878,136.39639749997878,0.017177299974719062,138.76791919997777,[-0.21625],[0.253125],[1],[0],[0],[2.3804892000043765],['target'],487467,001,2024-10-04_11h20.40.654,Visual.Search_priyanshiAU2220101,2024.1.5,None,2024-10-04 11h20.49.226122 +0530,
79,0,79,0,138.8194930999889,,138.7715241999831,10,138.8194930999889,138.8194930999889,0.03169270002399571,140.11710009997478,[-0.468125],[0.221875],[1],[0],[0],[1.3141189999878407],['target'],487467,001,2024-10-04_11h20.40.654,Visual.Search_priyanshiAU2220101,2024.1.5,None,2024-10-04 11h20.49.226122 +0530,
80,0,80,0,140.14410679999855,,140.1206181999878,5,140.14410679999855,140.14410679999855,0.015535500016994774,142.2675723999855,[0.389375],[-0.4725],[1],[0],[0],[2.13177700000233],['target'],487467,001,2024-10-04_11h20.40.654,Visual.Search_priyanshiAU2220101,2024.1.5,None,2024-10-04 11h20.49.226122 +0530,
81,0,81,0,142.31724419997772,,142.27125269998214,10,142.31724419997772,142.31724419997772,0.03149780002422631,143.96706719999202,[-0.465],[-0.43375],[1],[0],[0],[1.664691900019534],['target'],487467,001,2024-10-04_11h20.40.654,Visual.Search_priyanshiAU2220101,2024.1.5,None,2024-10-04 11h20.49.226122 +0530,
82,0,82,0,143.9962085999723,,143.97055699999328,5,143.9962085999723,143.9962085999723,0.0167821999930311,145.90036979998695,[0.23],[-0.381875],[1],[0],[0],[1.913251299993135],['target'],487467,001,2024-10-04_11h20.40.654,Visual.Search_priyanshiAU2220101,2024.1.5,None,2024-10-04 11h20.49.226122 +0530,
83,0,83,0,145.95796999998856,,145.90522769998643,10,145.95796999998856,145.95796999998856,0.037337100016884506,147.78319259997807,[-0.3075],[0.248125],[1],[0],[0],[1.8412223999912385],['target'],487467,001,2024-10-04_11h20.40.654,Visual.Search_priyanshiAU2220101,2024.1.5,None,2024-10-04 11h20.49.226122 +0530,
84,0,84,0,147.829854599986,,147.7861807999725,10,147.829854599986,147.829854599986,0.029704099986702204,149.51745889999438,[-0.4025],[0.451875],[1],[0],[0],[1.7016905999917071],['target'],487467,001,2024-10-04_11h20.40.654,Visual.Search_priyanshiAU2220101,2024.1.5,None,2024-10-04 11h20.49.226122 +0530,
85,0,85,0,149.56894629998715,,149.5204416999768,10,149.56894629998715,149.56894629998715,0.03412750002462417,151.19947779999347,[0.19875],[-0.35125],[1],[0],[0],[1.6450743000023067],['target'],487467,001,2024-10-04_11h20.40.654,Visual.Search_priyanshiAU2220101,2024.1.5,None,2024-10-04 11h20.49.226122 +0530,
86,0,86,0,151.24323589997948,,151.20308429998113,10,151.24323589997948,151.24323589997948,0.028214700025273487,152.76722619999782,[-0.149375],[0.23],[1],[0],[0],[1.5361581000033766],['target'],487467,001,2024-10-04_11h20.40.654,Visual.Search_priyanshiAU2220101,2024.1.5,None,2024-10-04 11h20.49.226122 +0530,
87,0,87,0,152.83138969997526,,152.77441739998176,10,152.83138969997526,152.83138969997526,0.04395779999322258,154.31665719999,[0.33625],[0.154375],[1],[0],[0],[1.4993717999896035],['target'],487467,001,2024-10-04_11h20.40.654,Visual.Search_priyanshiAU2220101,2024.1.5,None,2024-10-04 11h20.49.226122 +0530,
88,0,88,0,154.36475809998228,,154.32032909998088,10,154.36475809998228,154.36475809998228,0.03296450001653284,155.68330439997953,[0.1125],[-0.2375],[1],[0],[0],[1.330163500009803],['target'],487467,001,2024-10-04_11h20.40.654,Visual.Search_priyanshiAU2220101,2024.1.5,None,2024-10-04 11h20.49.226122 +0530,
89,0,89,0,155.73879859998124,,155.68725519999862,10,155.73879859998124,155.73879859998124,0.035097100015264004,157.99921379997977,[-0.370625],[-0.3075],[1],[0],[0],[2.2771482999960426],[],487467,001,2024-10-04_11h20.40.654,Visual.Search_priyanshiAU2220101,2024.1.5,None,2024-10-04 11h20.49.226122 +0530,
90,0,90,0,158.0477429999737,,158.002960599988,10,158.0477429999737,158.0477429999737,0.03244559999438934,160.58295599999838,[-0.245625],[0.468125],[1],[0],[0],[2.5478977999882773],['target'],487467,001,2024-10-04_11h20.40.654,Visual.Search_priyanshiAU2220101,2024.1.5,None,2024-10-04 11h20.49.226122 +0530,
91,0,91,0,160.62898549999227,,160.58671819997835,10,160.62898549999227,160.62898549999227,0.029020999994827434,162.26530459997593,[-0.320625],[-0.063125],[1],[0],[0],[1.6499046999961138],['target'],487467,001,2024-10-04_11h20.40.654,Visual.Search_priyanshiAU2220101,2024.1.5,None,2024-10-04 11h20.49.226122 +0530,
92,0,92,0,162.29282939998666,,162.26915819998248,5,162.29282939998666,162.29282939998666,0.015428899991093203,163.69972049997887,[0.02125],[-0.116875],[1],[0],[0],[1.4153942000120878],['target'],487467,001,2024-10-04_11h20.40.654,Visual.Search_priyanshiAU2220101,2024.1.5,None,2024-10-04 11h20.49.226122 +0530,
93,0,93,0,163.7305967999855,,163.7033642999886,5,163.7305967999855,163.7305967999855,0.01940030002151616,165.01585029999842,[-0.36375],[0.0875],[1],[0],[0],[1.2933289000065997],['target'],487467,001,2024-10-04_11h20.40.654,Visual.Search_priyanshiAU2220101,2024.1.5,None,2024-10-04 11h20.49.226122 +0530,
94,0,94,0,165.06011539997417,,165.01947659999132,10,165.06011539997417,165.06011539997417,0.029124400025466457,166.58226569998078,[-0.26625],[-0.13],[1],[0],[0],[1.534037300007185],['target'],487467,001,2024-10-04_11h20.40.654,Visual.Search_priyanshiAU2220101,2024.1.5,None,2024-10-04 11h20.49.226122 +0530,
95,0,95,0,166.6105811999878,,166.58637979999185,5,166.6105811999878,166.6105811999878,0.01583099999697879,168.04997639998328,[0.145625],[-0.139375],[1],[0],[0],[1.448128899995936],['target'],487467,001,2024-10-04_11h20.40.654,Visual.Search_priyanshiAU2220101,2024.1.5,None,2024-10-04 11h20.49.226122 +0530,
96,0,96,0,168.09677339997143,,168.05364519997966,10,168.09677339997143,168.09677339997143,0.029393000004347414,169.26605789997848,[0.163125],[-0.2025],[1],[0],[0],[1.1833654000074603],['target'],487467,001,2024-10-04_11h20.40.654,Visual.Search_priyanshiAU2220101,2024.1.5,None,2024-10-04 11h20.49.226122 +0530,
97,0,97,0,169.29292849998455,,169.26972549999482,5,169.29292849998455,169.29292849998455,0.015429900027811527,170.40006999997422,[0.288125],[-0.03125],[1],[0],[0],[1.1152698999794666],['target'],487467,001,2024-10-04_11h20.40.654,Visual.Search_priyanshiAU2220101,2024.1.5,None,2024-10-04 11h20.49.226122 +0530,
98,0,98,0,170.44828559999587,,170.40366779998294,10,170.44828559999587,170.44828559999587,0.031043399998452514,171.5332646999741,[0.205],[0.00125],[1],[0],[0],[1.0988529000023846],['target'],487467,001,2024-10-04_11h20.40.654,Visual.Search_priyanshiAU2220101,2024.1.5,None,2024-10-04 11h20.49.226122 +0530,
99,0,99,0,171.56183619998046,,171.53686209997977,5,171.56183619998046,171.56183619998046,0.015388600004371256,172.68242269998882,[-0.000625],[0.1525],[1],[0],[0],[1.130521899991436],['target'],487467,001,2024-10-04_11h20.40.654,Visual.Search_priyanshiAU2220101,2024.1.5,None,2024-10-04 11h20.49.226122 +0530,
100,0,100,0,172.7107519999845,,172.686057599989,5,172.7107519999845,172.7107519999845,0.015150299994274974,174.38382349998574,[-0.330625],[0.326875],[1],[0],[0],[1.682580799999414],['target'],487467,001,2024-10-04_11h20.40.654,Visual.Search_priyanshiAU2220101,2024.1.5,None,2024-10-04 11h20.49.226122 +0530,
101,0,101,0,174.40750909998314,,174.38691739999922,5,174.40750909998314,174.40750909998314,0.013575199991464615,176.21565209998516,[0.32875],[0.30125],[1],[0],[0],[1.8154188999906182],['target'],487467,001,2024-10-04_11h20.40.654,Visual.Search_priyanshiAU2220101,2024.1.5,None,2024-10-04 11h20.49.226122 +0530,
102,0,102,0,176.24281279998831,,176.21937679999974,5,176.24281279998831,176.24281279998831,0.015498799999477342,177.68304199998965,[0.25],[0.46],[1],[0],[0],[1.4486179999948945],['target'],487467,001,2024-10-04_11h20.40.654,Visual.Search_priyanshiAU2220101,2024.1.5,None,2024-10-04 11h20.49.226122 +0530,
103,0,103,0,177.70960109998123,,177.68661909998627,5,177.70960109998123,177.70960109998123,0.015160599985392764,178.96588119998341,[0.018125],[0.185625],[1],[0],[0],[1.2643804000108503],['target'],487467,001,2024-10-04_11h20.40.654,Visual.Search_priyanshiAU2220101,2024.1.5,None,2024-10-04 11h20.49.226122 +0530,
104,0,104,0,179.00941679999232,,178.96950719997403,10,179.00941679999232,179.00941679999232,0.028040500008501112,180.31659479998052,[0.42],[0.2625],[1],[0],[0],[1.319319700007327],['target'],487467,001,2024-10-04_11h20.40.654,Visual.Search_priyanshiAU2220101,2024.1.5,None,2024-10-04 11h20.49.226122 +0530,
105,0,105,0,180.3435548999987,,180.32021589999204,5,180.3435548999987,180.3435548999987,0.015566799993393943,181.5990284999716,[-0.08875],[-0.2725],[1],[0],[0],[1.263544000015827],['target'],487467,001,2024-10-04_11h20.40.654,Visual.Search_priyanshiAU2220101,2024.1.5,None,2024-10-04 11h20.49.226122 +0530,
106,0,106,0,181.6269978999917,,181.60293519997504,5,181.6269978999917,181.6269978999917,0.015218499989714473,183.3654257999733,[0.2775],[-0.305],[1],[0],[0],[1.747659200016642],['target'],487467,001,2024-10-04_11h20.40.654,Visual.Search_priyanshiAU2220101,2024.1.5,None,2024-10-04 11h20.49.226122 +0530,
107,0,107,0,183.40771499997936,,183.3698422999878,10,183.40771499997936,183.40771499997936,0.025256399996578693,184.71551559999352,[0.264375],[0.0125],[1],[0],[0],[1.3206591999914963],['target'],487467,001,2024-10-04_11h20.40.654,Visual.Search_priyanshiAU2220101,2024.1.5,None,2024-10-04 11h20.49.226122 +0530,
108,0,108,0,184.74332159999176,,184.71909659999073,5,184.74332159999176,184.74332159999176,0.015850900002988055,186.0487941999745,[-0.375625],[0.1625],[1],[0],[0],[1.3141783000028227],['target'],487467,001,2024-10-04_11h20.40.654,Visual.Search_priyanshiAU2220101,2024.1.5,None,2024-10-04 11h20.49.226122 +0530,
109,0,109,0,186.0940604999778,,186.0523951999785,10,186.0940604999778,186.0940604999778,0.028601900005014613,188.19946859998163,[0.2475],[-0.07125],[1],[0],[0],[2.118677699996624],['target'],487467,001,2024-10-04_11h20.40.654,Visual.Search_priyanshiAU2220101,2024.1.5,None,2024-10-04 11h20.49.226122 +0530,
110,0,110,0,188.25224849997903,,188.20303979999153,10,188.25224849997903,188.25224849997903,0.03254370001377538,190.2501696999825,[-0.329375],[-0.36125],[1],[0],[0],[2.0148003999784123],['target'],487467,001,2024-10-04_11h20.40.654,Visual.Search_priyanshiAU2220101,2024.1.5,None,2024-10-04 11h20.49.226122 +0530,
111,0,111,0,190.299148399994,,190.25557619999745,10,190.299148399994,190.299148399994,0.03128699999069795,192.88293989998056,[0.319375],[-0.395625],[1],[0],[0],[2.596556399977999],['target'],487467,001,2024-10-04_11h20.40.654,Visual.Search_priyanshiAU2220101,2024.1.5,None,2024-10-04 11h20.49.226122 +0530,
112,0,112,0,192.9366285999713,,192.88845819997368,10,192.9366285999713,192.9366285999713,0.032600600010482594,194.31635389997973,[0.23625],[0.16625],[1],[0],[0],[1.3960077999799978],['target'],487467,001,2024-10-04_11h20.40.654,Visual.Search_priyanshiAU2220101,2024.1.5,None,2024-10-04 11h20.49.226122 +0530,
113,0,113,0,194.3449501999712,,194.3199220999959,5,194.3449501999712,194.3449501999712,0.015913299983367324,195.7829751999816,[-0.04625],[-0.226875],[1],[0],[0],[1.4475047000159975],['target'],487467,001,2024-10-04_11h20.40.654,Visual.Search_priyanshiAU2220101,2024.1.5,None,2024-10-04 11h20.49.226122 +0530,
114,0,114,0,195.8092842999904,,195.78581199998735,5,195.8092842999904,195.8092842999904,0.016173499985598028,197.16585949997534,[0.456875],[0.0575],[1],[0],[0],[1.3639643000205979],['target'],487467,001,2024-10-04_11h20.40.654,Visual.Search_priyanshiAU2220101,2024.1.5,None,2024-10-04 11h20.49.226122 +0530,
115,0,115,0,197.2168208999792,,197.17037139998865,10,197.2168208999792,197.2168208999792,0.033003399992594495,198.565838599985,[-0.145625],[-0.04125],[1],[0],[0],[1.3628956000029575],['target'],487467,001,2024-10-04_11h20.40.654,Visual.Search_priyanshiAU2220101,2024.1.5,None,2024-10-04 11h20.49.226122 +0530,
116,0,116,0,198.62604409997584,,198.5707336999767,10,198.62604409997584,198.62604409997584,0.039506400004029274,200.14874219999183,[0.304375],[-0.336875],[1],[0],[0],[1.538920999999391],['target'],487467,001,2024-10-04_11h20.40.654,Visual.Search_priyanshiAU2220101,2024.1.5,None,2024-10-04 11h20.49.226122 +0530,
117,0,117,0,200.19836979999673,,200.15382789997966,10,200.19836979999673,200.19836979999673,0.032296899997163564,201.6159530999721,[0.02125],[0.204375],[1],[0],[0],[1.430223000003025],['target'],487467,001,2024-10-04_11h20.40.654,Visual.Search_priyanshiAU2220101,2024.1.5,None,2024-10-04 11h20.49.226122 +0530,
118,0,118,0,201.65083889997914,,201.62087169999722,5,201.65083889997914,201.65083889997914,0.02034099999582395,203.23139769997215,[-0.4875],[-0.03125],[1],[0],[0],[1.5909064000006765],['target'],487467,001,2024-10-04_11h20.40.654,Visual.Search_priyanshiAU2220101,2024.1.5,None,2024-10-04 11h20.49.226122 +0530,
119,0,119,0,203.26289159999578,,203.23543739999877,5,203.26289159999578,203.26289159999578,0.018284899997524917,204.6157142999873,[-0.121875],[-0.245625],[1],[0],[0],[1.3623280000174418],['target'],487467,001,2024-10-04_11h20.40.654,Visual.Search_priyanshiAU2220101,2024.1.5,None,2024-10-04 11h20.49.226122 +0530,
120,0,120,0,204.64873299997998,,204.61944159999257,5,204.64873299997998,204.64873299997998,0.019681000005220994,206.2810895999719,[0.431875],[0.001875],[1],[0],[0],[1.6422929000109434],['target'],487467,001,2024-10-04_11h20.40.654,Visual.Search_priyanshiAU2220101,2024.1.5,None,2024-10-04 11h20.49.226122 +0530,
121,0,121,0,206.34111089998623,,206.28571389999706,10,206.34111089998623,206.34111089998623,0.03908159999991767,207.56440089998068,[-0.0525],[-0.090625],[1],[0],[0],[1.2401488000177778],['target'],487467,001,2024-10-04_11h20.40.654,Visual.Search_priyanshiAU2220101,2024.1.5,None,2024-10-04 11h20.49.226122 +0530,
122,0,122,0,207.6215671999962,,207.56808869997622,10,207.6215671999962,207.6215671999962,0.04136789997573942,209.24915409999085,[-0.061875],[-0.280625],[1],[0],[0],[1.639806299994234],['target'],487467,001,2024-10-04_11h20.40.654,Visual.Search_priyanshiAU2220101,2024.1.5,None,2024-10-04 11h20.49.226122 +0530,
123,0,123,0,209.27950809997856,,209.25303109997185,5,209.27950809997856,209.27950809997856,0.016880499984836206,210.74870629998622,[-0.373125],[-0.089375],[1],[0],[0],[1.4791783000109717],['target'],487467,001,2024-10-04_11h20.40.654,Visual.Search_priyanshiAU2220101,2024.1.5,None,2024-10-04 11h20.49.226122 +0530,
124,0,124,0,210.78193649998866,,210.75245859997813,5,210.78193649998866,210.78193649998866,0.022330400010105222,212.63218599997344,[0.053125],[0.025625],[1],[0],[0],[1.85775259998627],['target'],487467,001,2024-10-04_11h20.40.654,Visual.Search_priyanshiAU2220101,2024.1.5,None,2024-10-04 11h20.49.226122 +0530,
125,0,125,0,212.65937369997846,,212.63498689999687,5,212.65937369997846,212.65937369997846,0.017300000006798655,214.1150040999928,[0.181875],[0.19875],[1],[0],[0],[1.4629382999846712],['target'],487467,001,2024-10-04_11h20.40.654,Visual.Search_priyanshiAU2220101,2024.1.5,None,2024-10-04 11h20.49.226122 +0530,
126,0,126,0,214.15974999999162,,214.11874649999663,10,214.15974999999162,214.15974999999162,0.028545599983772263,215.4139871999796,[-0.21875],[-0.233125],[1],[0],[0],[1.2671135000127833],['target'],487467,001,2024-10-04_11h20.40.654,Visual.Search_priyanshiAU2220101,2024.1.5,None,2024-10-04 11h20.49.226122 +0530,
127,0,127,0,215.4588826999825,,215.41766649999772,10,215.4588826999825,215.4588826999825,0.029236900008982047,217.0812816999969,[0.264375],[-0.32125],[1],[0],[0],[1.6346729999931995],['target'],487467,001,2024-10-04_11h20.40.654,Visual.Search_priyanshiAU2220101,2024.1.5,None,2024-10-04 11h20.49.226122 +0530,
128,0,128,0,217.12638509998214,,217.0850132999767,10,217.12638509998214,217.12638509998214,0.028534699988085777,218.73233069997514,[-0.319375],[0.19125],[1],[0],[0],[1.6190649999771267],['target'],487467,001,2024-10-04_11h20.40.654,Visual.Search_priyanshiAU2220101,2024.1.5,None,2024-10-04 11h20.49.226122 +0530,
129,0,129,0,218.756937499973,,218.7352473999781,5,218.756937499973,218.756937499973,0.014058699976885691,220.29794269998092,[-0.143125],[0.003125],[1],[0],[0],[1.548796899995068],['target'],487467,001,2024-10-04_11h20.40.654,Visual.Search_priyanshiAU2220101,2024.1.5,None,2024-10-04 11h20.49.226122 +0530,
130,0,130,0,220.32383549999213,,220.3016091999889,5,220.32383549999213,220.32383549999213,0.015040500002214685,222.21465429998352,[0.214375],[-0.35125],[1],[0],[0],[1.898309700016398],['target'],487467,001,2024-10-04_11h20.40.654,Visual.Search_priyanshiAU2220101,2024.1.5,None,2024-10-04 11h20.49.226122 +0530,
131,0,131,0,222.25978049999685,,222.21825769997668,10,222.25978049999685,222.25978049999685,0.02858759998343885,223.41511969998828,[-0.10125],[0.126875],[1],[0],[0],[1.1685939000162762],['target'],487467,001,2024-10-04_11h20.40.654,Visual.Search_priyanshiAU2220101,2024.1.5,None,2024-10-04 11h20.49.226122 +0530,
132,0,132,0,223.44296570000006,,223.41862989999936,5,223.44296570000006,223.44296570000006,0.015646200015908107,225.18199339997955,[-0.31875],[0.230625],[1],[0],[0],[1.7479494999861345],['target'],487467,001,2024-10-04_11h20.40.654,Visual.Search_priyanshiAU2220101,2024.1.5,None,2024-10-04 11h20.49.226122 +0530,
133,0,133,0,225.20859979998204,,225.1856531999947,5,225.20859979998204,225.20859979998204,0.015677299990784377,226.84767599997576,[-0.409375],[0.27625],[1],[0],[0],[1.6466847000119742],['target'],487467,001,2024-10-04_11h20.40.654,Visual.Search_priyanshiAU2220101,2024.1.5,None,2024-10-04 11h20.49.226122 +0530,
134,0,134,0,226.87465909999446,,226.85130179999396,5,226.87465909999446,226.87465909999446,0.015069300017785281,228.84849769997527,[-0.091875],[-0.46875],[1],[0],[0],[1.9825181000051089],['target'],487467,001,2024-10-04_11h20.40.654,Visual.Search_priyanshiAU2220101,2024.1.5,None,2024-10-04 11h20.49.226122 +0530,
135,0,135,0,228.89269239999703,,228.85211789997993,10,228.89269239999703,228.89269239999703,0.028096800000639632,230.1316013999749,[0.0575],[0.050625],[1],[0],[0],[1.2516977999766823],['target'],487467,001,2024-10-04_11h20.40.654,Visual.Search_priyanshiAU2220101,2024.1.5,None,2024-10-04 11h20.49.226122 +0530,
136,0,136,0,230.15906729997369,,230.1353091999772,5,230.15906729997369,230.15906729997369,0.016323800024110824,231.78091219998896,[-0.1725],[-0.0875],[1],[0],[0],[1.6296763999853283],['target'],487467,001,2024-10-04_11h20.40.654,Visual.Search_priyanshiAU2220101,2024.1.5,None,2024-10-04 11h20.49.226122 +0530,
137,0,137,0,231.82662039998104,,231.7845225999772,10,231.82662039998104,231.82662039998104,0.028684499993687496,233.66377159999683,[0.19125],[-0.4575],[1],[0],[0],[1.8509115000197198],['target'],487467,001,2024-10-04_11h20.40.654,Visual.Search_priyanshiAU2220101,2024.1.5,None,2024-10-04 11h20.49.226122 +0530,
138,0,138,0,233.70904319998226,,233.66749179997714,10,233.70904319998226,233.70904319998226,0.02941859999555163,235.19801209997968,[-0.501875],[-0.1],[1],[0],[0],[1.5012464000028558],['target'],487467,001,2024-10-04_11h20.40.654,Visual.Search_priyanshiAU2220101,2024.1.5,None,2024-10-04 11h20.49.226122 +0530,
139,0,139,0,235.2241467999993,,235.2027906999865,5,235.2241467999993,235.2241467999993,0.014053399994736537,236.6979387999745,[-0.2975],[-0.199375],[1],[0],[0],[1.4814766999916174],['target'],487467,001,2024-10-04_11h20.40.654,Visual.Search_priyanshiAU2220101,2024.1.5,None,2024-10-04 11h20.49.226122 +0530,
140,0,140,0,236.74209989997325,,236.701648199989,10,236.74209989997325,236.74209989997325,0.02810890000546351,238.48084039997775,[0.233125],[-0.468125],[1],[0],[0],[1.7514021999959368],['target'],487467,001,2024-10-04_11h20.40.654,Visual.Search_priyanshiAU2220101,2024.1.5,None,2024-10-04 11h20.49.226122 +0530,
141,0,141,0,238.508425899985,,238.4847847999772,5,238.508425899985,238.508425899985,0.015286099980585277,239.931417099986,[0.0325],[-0.156875],[1],[0],[0],[1.431658100016648],['target'],487467,001,2024-10-04_11h20.40.654,Visual.Search_priyanshiAU2220101,2024.1.5,None,2024-10-04 11h20.49.226122 +0530,
142,0,142,0,239.96098889998393,,239.93644239997957,5,239.96098889998393,239.96098889998393,0.01634930001455359,241.4147669999802,[0.14125],[0.49875],[1],[0],[0],[1.4626560999895446],['target'],487467,001,2024-10-04_11h20.40.654,Visual.Search_priyanshiAU2220101,2024.1.5,None,2024-10-04 11h20.49.226122 +0530,
143,0,143,0,241.44135049998295,,241.4183055999747,5,241.44135049998295,241.44135049998295,0.015438000002177432,243.48095909997937,[0.1525],[-0.305],[1],[0],[0],[2.0474618000152986],['target'],487467,001,2024-10-04_11h20.40.654,Visual.Search_priyanshiAU2220101,2024.1.5,None,2024-10-04 11h20.49.226122 +0530,
144,0,144,0,243.51108449997264,,243.48567779999576,5,243.51108449997264,243.51108449997264,0.017491099977632985,244.9810179999913,[-0.3925],[0.325625],[1],[0],[0],[1.4782797000079881],['target'],487467,001,2024-10-04_11h20.40.654,Visual.Search_priyanshiAU2220101,2024.1.5,None,2024-10-04 11h20.49.226122 +0530,
145,0,145,0,245.0268347999954,,244.9846225999936,10,245.0268347999954,245.0268347999954,0.02871179999783635,246.51433279999765,[0.026875],[-0.2925],[1],[0],[0],[1.5013713000225835],[],487467,001,2024-10-04_11h20.40.654,Visual.Search_priyanshiAU2220101,2024.1.5,None,2024-10-04 11h20.49.226122 +0530,
146,0,146,0,246.55784639998456,,246.51799059999757,10,246.55784639998456,246.55784639998456,0.02613859999109991,247.68121489998884,[-0.09625],[0.06625],[1],[0],[0],[1.1374241999874357],['target'],487467,001,2024-10-04_11h20.40.654,Visual.Search_priyanshiAU2220101,2024.1.5,None,2024-10-04 11h20.49.226122 +0530,
147,0,147,0,247.72660789999645,,247.6848966999969,10,247.72660789999645,247.72660789999645,0.028947099985089153,249.96473599999445,[0.224375],[-0.02625],[1],[0],[0],[2.251220399979502],[],487467,001,2024-10-04_11h20.40.654,Visual.Search_priyanshiAU2220101,2024.1.5,None,2024-10-04 11h20.49.226122 +0530,
148,0,148,0,249.99181329997373,,249.96844189998228,5,249.99181329997373,249.99181329997373,0.015494200022658333,251.19799329998204,[-0.09375],[-0.0425],[1],[0],[0],[1.214459100010572],['target'],487467,001,2024-10-04_11h20.40.654,Visual.Search_priyanshiAU2220101,2024.1.5,None,2024-10-04 11h20.49.226122 +0530,
149,0,149,0,251.22629069999675,,251.20159369998146,5,251.22629069999675,251.22629069999675,0.015268799994373694,252.91446439997526,[0.258125],[-0.226875],[1],[0],[0],[1.697945099993376],['target'],487467,001,2024-10-04_11h20.40.654,Visual.Search_priyanshiAU2220101,2024.1.5,None,2024-10-04 11h20.49.226122 +0530,
150,0,150,0,252.9408142999746,,252.9180062999949,5,252.9408142999746,252.9408142999746,0.015088199987076223,254.0642947999877,[0.045625],[0.035],[1],[0],[0],[1.1316092000051867],[],487467,001,2024-10-04_11h20.40.654,Visual.Search_priyanshiAU2220101,2024.1.5,None,2024-10-04 11h20.49.226122 +0530,
151,0,151,0,254.09188759999233,,254.06784909998532,5,254.09188759999233,254.09188759999233,0.015968099993187934,256.08088829999906,[0.415],[-0.435],[1],[0],[0],[1.9974088999733794],['target'],487467,001,2024-10-04_11h20.40.654,Visual.Search_priyanshiAU2220101,2024.1.5,None,2024-10-04 11h20.49.226122 +0530,
152,0,152,0,256.1255792999873,,256.084497999982,10,256.1255792999873,256.1255792999873,0.027986600005533546,256.980250899971,[0.335625],[-0.11625],[1],[0],[0],[0.8680233999912161],[],487467,001,2024-10-04_11h20.40.654,Visual.Search_priyanshiAU2220101,2024.1.5,None,2024-10-04 11h20.49.226122 +0530,
153,0,153,0,257.027363399975,,256.98444029997336,10,257.027363399975,257.027363399975,0.0322452999826055,259.11331679997966,[0.249375],[0.45875],[1],[0],[0],[2.0973185000184458],['target'],487467,001,2024-10-04_11h20.40.654,Visual.Search_priyanshiAU2220101,2024.1.5,None,2024-10-04 11h20.49.226122 +0530,
154,0,154,0,259.15806479999446,,259.1169204999751,10,259.15806479999446,259.15806479999446,0.028816299978643656,260.44748149998486,[0.20875],[0.40875],[1],[0],[0],[1.3020242000056896],['target'],487467,001,2024-10-04_11h20.40.654,Visual.Search_priyanshiAU2220101,2024.1.5,None,2024-10-04 11h20.49.226122 +0530,
155,0,155,0,260.47639239998534,,260.4511554999917,5,260.47639239998534,260.47639239998534,0.01711840002099052,261.66403519999585,[0.02625],[-0.224375],[1],[0],[0],[1.1960878999962006],[],487467,001,2024-10-04_11h20.40.654,Visual.Search_priyanshiAU2220101,2024.1.5,None,2024-10-04 11h20.49.226122 +0530,
156,0,156,0,261.6910740999738,,261.6677053999738,5,261.6910740999738,261.6910740999738,0.015187599987257272,263.2140100999968,[-0.49],[-0.1375],[1],[0],[0],[1.5314300999743864],['target'],487467,001,2024-10-04_11h20.40.654,Visual.Search_priyanshiAU2220101,2024.1.5,None,2024-10-04 11h20.49.226122 +0530,
157,0,157,0,263.24277259997325,,263.21780859999126,5,263.24277259997325,263.24277259997325,0.015588900016155094,264.5974461999722,[-0.281875],[-0.103125],[1],[0],[0],[1.3644791999831796],[],487467,001,2024-10-04_11h20.40.654,Visual.Search_priyanshiAU2220101,2024.1.5,None,2024-10-04 11h20.49.226122 +0530,
158,0,158,0,264.64298449998023,,264.601170799986,10,264.64298449998023,264.64298449998023,0.029199799988418818,266.5291971999977,[0.13875],[-0.465],[1],[0],[0],[1.899220500024967],['target'],487467,001,2024-10-04_11h20.40.654,Visual.Search_priyanshiAU2220101,2024.1.5,None,2024-10-04 11h20.49.226122 +0530,
159,0,159,0,266.5742249999894,,266.5328886999923,10,266.5742249999894,266.5742249999894,0.02837860002182424,268.0305263999908,[0.06375],[-0.15625],[1],[0],[0],[1.4694362000154797],['target'],487467,001,2024-10-04_11h20.40.654,Visual.Search_priyanshiAU2220101,2024.1.5,None,2024-10-04 11h20.49.226122 +0530,
160,0,160,0,268.0685277999728,,268.0358188999817,5,268.0685277999728,268.0685277999728,0.023087600013241172,270.1468188999861,[0.444375],[-0.116875],[1],[0],[0],[2.0884841000079177],['target'],487467,001,2024-10-04_11h20.40.654,Visual.Search_priyanshiAU2220101,2024.1.5,None,2024-10-04 11h20.49.226122 +0530,
161,0,161,0,270.19046019998495,,270.15012739997474,10,270.19046019998495,270.19046019998495,0.027883000002475455,272.09690709999995,[-0.483125],[-0.120625],[1],[0],[0],[1.9187562000006437],['target'],487467,001,2024-10-04_11h20.40.654,Visual.Search_priyanshiAU2220101,2024.1.5,None,2024-10-04 11h20.49.226122 +0530,
162,0,162,0,272.12412979998044,,272.1010814999754,5,272.12412979998044,272.12412979998044,0.015669799991883337,273.29724609997356,[-0.425625],[-0.4425],[1],[0],[0],[1.1807134000118822],['target'],487467,001,2024-10-04_11h20.40.654,Visual.Search_priyanshiAU2220101,2024.1.5,None,2024-10-04 11h20.49.226122 +0530,
163,0,163,0,273.3264845999947,,273.30027919998975,5,273.3264845999947,273.3264845999947,0.018329199985601008,275.097438399971,[0.116875],[0.00375],[1],[0],[0],[1.7791024000034668],['target'],487467,001,2024-10-04_11h20.40.654,Visual.Search_priyanshiAU2220101,2024.1.5,None,2024-10-04 11h20.49.226122 +0530,
164,0,164,0,275.12691859999904,,275.10222679999424,5,275.12691859999904,275.12691859999904,0.016627100005280226,276.49710339997546,[0.329375],[-0.306875],[1],[0],[0],[1.3787799999990966],['target'],487467,001,2024-10-04_11h20.40.654,Visual.Search_priyanshiAU2220101,2024.1.5,None,2024-10-04 11h20.49.226122 +0530,
165,0,165,0,276.5480348999845,,276.50252039998304,10,276.5480348999845,276.5480348999845,0.03518559999065474,277.6304919999966,[0.154375],[-0.280625],[1],[0],[0],[1.09345270000631],['target'],487467,001,2024-10-04_11h20.40.654,Visual.Search_priyanshiAU2220101,2024.1.5,None,2024-10-04 11h20.49.226122 +0530,
166,0,166,0,277.6817357999971,,277.6334478999779,10,277.6817357999971,277.6817357999971,0.033502599981147796,279.4960888999922,[0.165],[0.17875],[1],[0],[0],[1.8293111000093631],['target'],487467,001,2024-10-04_11h20.40.654,Visual.Search_priyanshiAU2220101,2024.1.5,None,2024-10-04 11h20.49.226122 +0530,
167,0,167,0,279.54345369999646,,279.499765799992,10,279.54345369999646,279.54345369999646,0.028718800022033975,281.2130098999769,[0.024375],[0.33375],[1],[0],[0],[1.684848700009752],['target'],487467,001,2024-10-04_11h20.40.654,Visual.Search_priyanshiAU2220101,2024.1.5,None,2024-10-04 11h20.49.226122 +0530,
168,0,168,0,281.240230699972,,281.2167225999874,5,281.240230699972,281.240230699972,0.015918899996904656,282.71371709997766,[-0.33375],[0.2],[1],[0],[0],[1.4814710000064224],['target'],487467,001,2024-10-04_11h20.40.654,Visual.Search_priyanshiAU2220101,2024.1.5,None,2024-10-04 11h20.49.226122 +0530,
169,0,169,0,282.76152459997684,,282.7173592999752,10,282.76152459997684,282.76152459997684,0.03103509999345988,283.94690849998733,[-0.3825],[0.10125],[1],[0],[0],[1.1988246000255458],['target'],487467,001,2024-10-04_11h20.40.654,Visual.Search_priyanshiAU2220101,2024.1.5,None,2024-10-04 11h20.49.226122 +0530,
170,0,170,0,283.97508139998536,,283.9506282999937,5,283.97508139998536,283.97508139998536,0.015951300010783598,285.8295738999732,[-0.085625],[-0.345625],[1],[0],[0],[1.8633803999982774],['target'],487467,001,2024-10-04_11h20.40.654,Visual.Search_priyanshiAU2220101,2024.1.5,None,2024-10-04 11h20.49.226122 +0530,
171,0,171,0,285.8754237999965,,285.8331364999758,10,285.8754237999965,285.8754237999965,0.029720600025029853,287.2461097999767,[0.074375],[0.19875],[1],[0],[0],[1.3835790999874007],['target'],487467,001,2024-10-04_11h20.40.654,Visual.Search_priyanshiAU2220101,2024.1.5,None,2024-10-04 11h20.49.226122 +0530,
172,0,172,0,287.29216449998785,,287.24976439998136,10,287.29216449998785,287.29216449998785,0.02822150001884438,288.6960311999719,[-0.445625],[-0.099375],[1],[0],[0],[1.4184549000055995],['target'],487467,001,2024-10-04_11h20.40.654,Visual.Search_priyanshiAU2220101,2024.1.5,None,2024-10-04 11h20.49.226122 +0530,
173,0,173,0,288.72462479997193,,288.699767699989,5,288.72462479997193,288.72462479997193,0.01566949998959899,290.3302568999934,[0.253125],[-0.3075],[1],[0],[0],[1.6152337999956217],[],487467,001,2024-10-04_11h20.40.654,Visual.Search_priyanshiAU2220101,2024.1.5,None,2024-10-04 11h20.49.226122 +0530,
174,0,174,0,290.37501359998714,,290.3338820999779,10,290.37501359998714,290.37501359998714,0.028254600008949637,291.64670109999133,[-0.224375],[-0.245625],[1],[0],[0],[1.2848713000130374],[],487467,001,2024-10-04_11h20.40.654,Visual.Search_priyanshiAU2220101,2024.1.5,None,2024-10-04 11h20.49.226122 +0530,
175,0,175,0,291.69037119997665,,291.65040779998526,10,291.69037119997665,291.69037119997665,0.029207600018708035,293.3301207999757,[-0.14375],[-0.42],[1],[0],[0],[1.6508051000128035],['target'],487467,001,2024-10-04_11h20.40.654,Visual.Search_priyanshiAU2220101,2024.1.5,None,2024-10-04 11h20.49.226122 +0530,
176,0,176,0,293.3764252999972,,293.3338575999951,10,293.3764252999972,293.3764252999972,0.029388100025244057,294.61274349997984,[-0.239375],[0.04],[1],[0],[0],[1.249865099991439],['target'],487467,001,2024-10-04_11h20.40.654,Visual.Search_priyanshiAU2220101,2024.1.5,None,2024-10-04 11h20.49.226122 +0530,
177,0,177,0,294.6578827999765,,294.6163553999795,10,294.6578827999765,294.6578827999765,0.028298999997787178,296.12890719997813,[-0.01625],[-0.0625],[1],[0],[0],[1.484596300026169],['target'],487467,001,2024-10-04_11h20.40.654,Visual.Search_priyanshiAU2220101,2024.1.5,None,2024-10-04 11h20.49.226122 +0530,
178,0,178,0,296.1743326999713,,296.1326820999966,10,296.1743326999713,296.1743326999713,0.02871820001746528,297.9295720999944,[-0.35375],[0.315625],[1],[0],[0],[1.7683018000097945],['target'],487467,001,2024-10-04_11h20.40.654,Visual.Search_priyanshiAU2220101,2024.1.5,None,2024-10-04 11h20.49.226122 +0530,
179,0,179,0,297.9573013999907,,297.9325724999944,5,297.9573013999907,297.9573013999907,0.01516870001796633,299.67968479997944,[-0.28625],[0.053125],[1],[0],[0],[1.73215870000422],['target'],487467,001,2024-10-04_11h20.40.654,Visual.Search_priyanshiAU2220101,2024.1.5,None,2024-10-04 11h20.49.226122 +0530,
180,0,180,0,299.72470649998286,,299.6833448999969,10,299.72470649998286,299.72470649998286,0.028619700024137273,301.11260069999844,[-0.14],[-0.015625],[1],[0],[0],[1.4010338000080083],['target'],487467,001,2024-10-04_11h20.40.654,Visual.Search_priyanshiAU2220101,2024.1.5,None,2024-10-04 11h20.49.226122 +0530,
181,0,181,0,301.13980749997427,,301.11626529999194,5,301.13980749997427,301.13980749997427,0.015528899995842949,302.89579089998733,[0.18875],[0.391875],[1],[0],[0],[1.764306700002635],['target'],487467,001,2024-10-04_11h20.40.654,Visual.Search_priyanshiAU2220101,2024.1.5,None,2024-10-04 11h20.49.226122 +0530,
182,0,182,0,302.9411823999835,,302.89963029997307,10,302.9411823999835,302.9411823999835,0.028542000014567748,304.8956406999787,[-0.2175],[-0.343125],[1],[0],[0],[1.967763799999375],['target'],487467,001,2024-10-04_11h20.40.654,Visual.Search_priyanshiAU2220101,2024.1.5,None,2024-10-04 11h20.49.226122 +0530,
183,0,183,0,304.9395525,,304.8993132999749,10,304.9395525,304.9395525,0.02823070000158623,306.1462375999836,[-0.031875],[-0.128125],[1],[0],[0],[1.2190419000107795],['target'],487467,001,2024-10-04_11h20.40.654,Visual.Search_priyanshiAU2220101,2024.1.5,None,2024-10-04 11h20.49.226122 +0530,
184,0,184,0,306.1739608999924,,306.14993799998774,5,306.1739608999924,306.1739608999924,0.015420100011397153,307.59577439998975,[-0.02],[-0.395],[1],[0],[0],[1.4308091000129934],['target'],487467,001,2024-10-04_11h20.40.654,Visual.Search_priyanshiAU2220101,2024.1.5,None,2024-10-04 11h20.49.226122 +0530,
185,0,185,0,307.64045049998094,,307.5995873999782,10,307.64045049998094,307.64045049998094,0.027827999991131946,308.94540989998495,[-0.011875],[0.035],[1],[0],[0],[1.3183294000045862],['target'],487467,001,2024-10-04_11h20.40.654,Visual.Search_priyanshiAU2220101,2024.1.5,None,2024-10-04 11h20.49.226122 +0530,
186,0,186,0,308.97427859998425,,308.949011299992,5,308.97427859998425,308.97427859998425,0.016797399992356077,310.3295010999718,[-0.079375],[0.228125],[1],[0],[0],[1.3640447000216227],['target'],487467,001,2024-10-04_11h20.40.654,Visual.Search_priyanshiAU2220101,2024.1.5,None,2024-10-04 11h20.49.226122 +0530,
187,0,187,0,310.3746312999865,,310.3331568999856,10,310.3746312999865,310.3746312999865,0.029318899993086234,312.71194149999064,[0.39875],[-0.385],[1],[0],[0],[2.349814899993362],['target'],487467,001,2024-10-04_11h20.40.654,Visual.Search_priyanshiAU2220101,2024.1.5,None,2024-10-04 11h20.49.226122 +0530,
188,0,188,0,312.7571669999743,,312.7156121999724,10,312.7571669999743,312.7571669999743,0.0287462999986019,314.1789617999748,[0.290625],[0.131875],[1],[0],[0],[1.4348575999902096],['target'],487467,001,2024-10-04_11h20.40.654,Visual.Search_priyanshiAU2220101,2024.1.5,None,2024-10-04 11h20.49.226122 +0530,
189,0,189,0,314.2073015999922,,314.1826570999983,5,314.2073015999922,314.2073015999922,0.015249499992933124,315.61227729998063,[-0.13875],[-0.295625],[1],[0],[0],[1.4146208000020124],['target'],487467,001,2024-10-04_11h20.40.654,Visual.Search_priyanshiAU2220101,2024.1.5,None,2024-10-04 11h20.49.226122 +0530,
190,0,190,0,315.6380602999998,,315.6159240999841,5,315.6380602999998,315.6380602999998,0.01482350000878796,317.029710599978,[0.42125],[0.171875],[1],[0],[0],[1.3992623000231106],['target'],487467,001,2024-10-04_11h20.40.654,Visual.Search_priyanshiAU2220101,2024.1.5,None,2024-10-04 11h20.49.226122 +0530,
191,0,191,0,317.05702289997134,,317.033847099985,5,317.05702289997134,317.05702289997134,0.016065400006482378,318.67839529999765,[-0.095],[0.31625],[1],[0],[0],[1.629133299982641],['target'],487467,001,2024-10-04_11h20.40.654,Visual.Search_priyanshiAU2220101,2024.1.5,None,2024-10-04 11h20.49.226122 +0530,
192,0,192,0,318.7236835999938,,318.6819825999846,10,318.7236835999938,318.7236835999938,0.02825860001030378,320.59611489999224,[-0.430625],[0.40125],[1],[0],[0],[1.8861704999872018],['target'],487467,001,2024-10-04_11h20.40.654,Visual.Search_priyanshiAU2220101,2024.1.5,None,2024-10-04 11h20.49.226122 +0530,
193,0,193,0,320.62470029998804,,320.59980589998304,5,320.62470029998804,320.62470029998804,0.015542999986791983,322.24617539998144,[0.139375],[-0.29875],[1],[0],[0],[1.6312479999905918],['target'],487467,001,2024-10-04_11h20.40.654,Visual.Search_priyanshiAU2220101,2024.1.5,None,2024-10-04 11h20.49.226122 +0530,
194,0,194,0,322.29075679997914,,322.2497076999862,10,322.29075679997914,322.29075679997914,0.02849249998689629,323.39566509998986,[-0.008125],[-0.275625],[1],[0],[0],[1.1178638000274077],[],487467,001,2024-10-04_11h20.40.654,Visual.Search_priyanshiAU2220101,2024.1.5,None,2024-10-04 11h20.49.226122 +0530,
195,0,195,0,323.42261119998875,,323.399236199999,5,323.42261119998875,323.42261119998875,0.015734999993583187,325.1460238999862,[-0.053125],[0.409375],[1],[0],[0],[1.7314253999793436],['target'],487467,001,2024-10-04_11h20.40.654,Visual.Search_priyanshiAU2220101,2024.1.5,None,2024-10-04 11h20.49.226122 +0530,
196,0,196,0,325.172573799995,,325.14961949997814,5,325.172573799995,325.172573799995,0.015247500006807968,327.01226529999985,[0.435625],[0.074375],[1],[0],[0],[1.8477198999898974],['target'],487467,001,2024-10-04_11h20.40.654,Visual.Search_priyanshiAU2220101,2024.1.5,None,2024-10-04 11h20.49.226122 +0530,
197,0,197,0,327.0577854999865,,327.0158736999729,10,327.0577854999865,327.0577854999865,0.028651000000536442,328.2781387999712,[0.44875],[0.33875],[1],[0],[0],[1.233930699992925],['target'],487467,001,2024-10-04_11h20.40.654,Visual.Search_priyanshiAU2220101,2024.1.5,None,2024-10-04 11h20.49.226122 +0530,
198,0,198,0,328.3237157999829,,328.2819614999753,10,328.3237157999829,328.3237157999829,0.0296362999943085,329.7785713999765,[-0.503125],[-0.31375],[1],[0],[0],[1.4673550000006799],[],487467,001,2024-10-04_11h20.40.654,Visual.Search_priyanshiAU2220101,2024.1.5,None,2024-10-04 11h20.49.226122 +0530,
199,0,199,0,329.81891239999095,,329.7815035999811,10,329.81891239999095,329.81891239999095,0.02453070000046864,331.47845569998026,[0.233125],[0.051875],[1],[0],[0],[1.6725563000072725],['target'],487467,001,2024-10-04_11h20.40.654,Visual.Search_priyanshiAU2220101,2024.1.5,None,2024-10-04 11h20.49.226122 +0530,
