trials.thisRepN,trials.thisTrialN,trials.thisN,trials.thisIndex,thisRow.t,notes,trial.started,num_distr,fixation.started,target.started,mouse.started,trial.stopped,mouse.x,mouse.y,mouse.leftButton,mouse.midButton,mouse.rightButton,mouse.time,mouse.clicked_name,participant,session,date,expName,psychopyVersion,frameRate,expStart,
0,0,0,0,0.02736950002145022,,0.004247200035024434,5,0.02736950002145022,0.02736950002145022,0.0209498000331223,2.170823200023733,[0.48],[0.114375],[1],[0],[0],[2.1492147999815643],['target'],297215,001,2024-10-05_15h05.19.899,Visual.Search_priyanshiAU2220101,2024.1.5,None,2024-10-05 15h05.26.315319 +0530,
1,0,1,0,2.1884843000443652,,2.173600800044369,5,2.1884843000443652,2.1884843000443652,0.009862699953373522,3.755115300009493,[-0.236875],[-0.040625],[1],[0],[0],[1.5713527000043541],['target'],297215,001,2024-10-05_15h05.19.899,Visual.Search_priyanshiAU2220101,2024.1.5,None,2024-10-05 15h05.26.315319 +0530,
2,0,2,0,3.7746316000120714,,3.7588564000325277,5,3.7746316000120714,3.7746316000120714,0.010164499981328845,5.670382900047116,[-0.296875],[-0.29625],[1],[0],[0],[1.9015467999852262],['target'],297215,001,2024-10-05_15h05.19.899,Visual.Search_priyanshiAU2220101,2024.1.5,None,2024-10-05 15h05.26.315319 +0530,
3,0,3,0,5.688036000006832,,5.673157900047954,5,5.688036000006832,5.688036000006832,0.010061200009658933,7.7385791999986395,[0.428125],[-0.453125],[1],[0],[0],[2.0554146000067703],['target'],297215,001,2024-10-05_15h05.19.899,Visual.Search_priyanshiAU2220101,2024.1.5,None,2024-10-05 15h05.26.315319 +0530,
4,0,4,0,7.75767070002621,,7.741979800048284,5,7.75767070002621,7.75767070002621,0.010546699981205165,9.454375600034837,[-0.215],[-0.03],[1],[0],[0],[1.7021591999800876],['target'],297215,001,2024-10-05_15h05.19.899,Visual.Search_priyanshiAU2220101,2024.1.5,None,2024-10-05 15h05.26.315319 +0530,
5,0,5,0,9.471963300020434,,9.456542200001422,5,9.471963300020434,9.471963300020434,0.01000969996675849,11.320541699999012,[0.15625],[-0.269375],[1],[0],[0],[1.854056300013326],['target'],297215,001,2024-10-05_15h05.19.899,Visual.Search_priyanshiAU2220101,2024.1.5,None,2024-10-05 15h05.26.315319 +0530,
6,0,6,0,11.349991800030693,,11.322789400001056,10,11.349991800030693,11.349991800030693,0.019064699998125434,12.838177199999336,[-0.348125],[-0.1375],[1],[0],[0],[1.496486800024286],['target'],297215,001,2024-10-05_15h05.19.899,Visual.Search_priyanshiAU2220101,2024.1.5,None,2024-10-05 15h05.26.315319 +0530,
7,0,7,0,12.869567200017627,,12.840514000039548,10,12.869567200017627,12.869567200017627,0.020802800019737333,14.953931700030807,[0.491875],[-0.024375],[1],[0],[0],[2.092716899991501],['target'],297215,001,2024-10-05_15h05.19.899,Visual.Search_priyanshiAU2220101,2024.1.5,None,2024-10-05 15h05.26.315319 +0530,
8,0,8,0,14.983079600031488,,14.956053800007794,10,14.983079600031488,14.983079600031488,0.019209399993997067,16.521721100027207,[-0.4125],[-0.33875],[1],[0],[0],[1.546437999990303],['target'],297215,001,2024-10-05_15h05.19.899,Visual.Search_priyanshiAU2220101,2024.1.5,None,2024-10-05 15h05.26.315319 +0530,
9,0,9,0,16.54072069999529,,16.524733400030527,5,16.54072069999529,16.54072069999529,0.010182099998928607,18.088415700010955,[0.15875],[0.40875],[1],[0],[0],[1.5535709999967366],['target'],297215,001,2024-10-05_15h05.19.899,Visual.Search_priyanshiAU2220101,2024.1.5,None,2024-10-05 15h05.26.315319 +0530,
10,0,10,0,18.10731410002336,,18.091627300018445,5,18.10731410002336,18.10731410002336,0.010517499991692603,20.153952300024685,[0.27625],[-0.013125],[1],[0],[0],[2.052018799993675],['target'],297215,001,2024-10-05_15h05.19.899,Visual.Search_priyanshiAU2220101,2024.1.5,None,2024-10-05 15h05.26.315319 +0530,
11,0,11,0,20.18550200003665,,20.157233100035228,10,20.18550200003665,20.18550200003665,0.020772899966686964,22.238332200038712,[0.276875],[-0.4175],[1],[0],[0],[2.060424800030887],['target'],297215,001,2024-10-05_15h05.19.899,Visual.Search_priyanshiAU2220101,2024.1.5,None,2024-10-05 15h05.26.315319 +0530,
12,0,12,0,22.26979819999542,,22.242312700022012,10,22.26979819999542,22.26979819999542,0.019881299987901002,23.90388040000107,[0.433125],[-0.135],[1],[0],[0],[1.6420177000109106],['target'],297215,001,2024-10-05_15h05.19.899,Visual.Search_priyanshiAU2220101,2024.1.5,None,2024-10-05 15h05.26.315319 +0530,
13,0,13,0,23.921886700030882,,23.90611150005134,5,23.921886700030882,23.921886700030882,0.009852199989836663,25.554954200051725,[-0.158125],[0.459375],[1],[0],[0],[1.639086299983319],['target'],297215,001,2024-10-05_15h05.19.899,Visual.Search_priyanshiAU2220101,2024.1.5,None,2024-10-05 15h05.26.315319 +0530,
14,0,14,0,25.592040300020017,,25.55721620004624,10,25.592040300020017,25.592040300020017,0.02265669999178499,27.471709100005683,[0.23625],[-0.33375],[1],[0],[0],[1.8916966000106186],['target'],297215,001,2024-10-05_15h05.19.899,Visual.Search_priyanshiAU2220101,2024.1.5,None,2024-10-05 15h05.26.315319 +0530,
15,0,15,0,27.502988499996718,,27.475473700033035,10,27.502988499996718,27.502988499996718,0.01970520004397258,29.021367600013036,[0.31125],[0.11375],[1],[0],[0],[1.5264229999738745],['target'],297215,001,2024-10-05_15h05.19.899,Visual.Search_priyanshiAU2220101,2024.1.5,None,2024-10-05 15h05.26.315319 +0530,
16,0,16,0,29.038980600016657,,29.023510200029705,5,29.038980600016657,29.038980600016657,0.009866399981547147,30.804887900012545,[0.024375],[0.260625],[1],[0],[0],[1.7715846999781206],['target'],297215,001,2024-10-05_15h05.19.899,Visual.Search_priyanshiAU2220101,2024.1.5,None,2024-10-05 15h05.26.315319 +0530,
17,0,17,0,30.8350537000224,,30.80811080004787,10,30.8350537000224,30.8350537000224,0.01925790001405403,32.66998430003878,[0.48],[0.161875],[1],[0],[0],[1.8427751999697648],['target'],297215,001,2024-10-05_15h05.19.899,Visual.Search_priyanshiAU2220101,2024.1.5,None,2024-10-05 15h05.26.315319 +0530,
18,0,18,0,32.69877290003933,,32.672132800042164,10,32.69877290003933,32.69877290003933,0.018910399987362325,34.437257200013846,[0.064375],[0.174375],[1],[0],[0],[1.746264700021129],['target'],297215,001,2024-10-05_15h05.19.899,Visual.Search_priyanshiAU2220101,2024.1.5,None,2024-10-05 15h05.26.315319 +0530,
19,0,19,0,34.455005900003016,,34.439424100040924,5,34.455005900003016,34.455005900003016,0.009961400006432086,36.23678540001856,[-0.028125],[0.418125],[1],[0],[0],[1.7873292000149377],['target'],297215,001,2024-10-05_15h05.19.899,Visual.Search_priyanshiAU2220101,2024.1.5,None,2024-10-05 15h05.26.315319 +0530,
20,0,20,0,36.26809940004023,,36.24011510005221,10,36.26809940004023,36.26809940004023,0.02031430002534762,38.03666110004997,[-0.369375],[-0.2025],[1],[0],[0],[1.7764574000029825],['target'],297215,001,2024-10-05_15h05.19.899,Visual.Search_priyanshiAU2220101,2024.1.5,None,2024-10-05 15h05.26.315319 +0530,
21,0,21,0,38.067493100010324,,38.039986700052395,10,38.067493100010324,38.067493100010324,0.01957940001739189,39.671444300038274,[-0.11125],[-0.289375],[1],[0],[0],[1.6119918000185862],['target'],297215,001,2024-10-05_15h05.19.899,Visual.Search_priyanshiAU2220101,2024.1.5,None,2024-10-05 15h05.26.315319 +0530,
22,0,22,0,39.69055020000087,,39.67438470001798,5,39.69055020000087,39.69055020000087,0.010899399989284575,41.23785070003942,[0.478125],[0.206875],[1],[0],[0],[1.55274879996432],['target'],297215,001,2024-10-05_15h05.19.899,Visual.Search_priyanshiAU2220101,2024.1.5,None,2024-10-05 15h05.26.315319 +0530,
23,0,23,0,41.256645200017374,,41.24086410005111,5,41.256645200017374,41.256645200017374,0.010364200046751648,43.15319300000556,[0.443125],[-0.27125],[1],[0],[0],[1.9020757999969646],['target'],297215,001,2024-10-05_15h05.19.899,Visual.Search_priyanshiAU2220101,2024.1.5,None,2024-10-05 15h05.26.315319 +0530,
24,0,24,0,43.18427290004911,,43.15604309999617,10,43.18427290004911,43.18427290004911,0.02021180000156164,44.82021130004432,[0.45875],[-0.055],[1],[0],[0],[1.6439777000341564],['target'],297215,001,2024-10-05_15h05.19.899,Visual.Search_priyanshiAU2220101,2024.1.5,None,2024-10-05 15h05.26.315319 +0530,
25,0,25,0,44.83789190003881,,44.82237810001243,5,44.83789190003881,44.83789190003881,0.010024199960753322,46.48743989999639,[-0.225625],[0.215],[1],[0],[0],[1.6548757000127807],['target'],297215,001,2024-10-05_15h05.19.899,Visual.Search_priyanshiAU2220101,2024.1.5,None,2024-10-05 15h05.26.315319 +0530,
26,0,26,0,46.51711900002556,,46.489949300012086,10,46.51711900002556,46.51711900002556,0.01910380000481382,48.22050630004378,[0.171875],[-0.368125],[1],[0],[0],[1.7115228000329807],['target'],297215,001,2024-10-05_15h05.19.899,Visual.Search_priyanshiAU2220101,2024.1.5,None,2024-10-05 15h05.26.315319 +0530,
27,0,27,0,48.2493074000231,,48.222660700033884,10,48.2493074000231,48.2493074000231,0.018912400002591312,49.67017070000293,[-0.05],[0.330625],[1],[0],[0],[1.428674900031183],['target'],297215,001,2024-10-05_15h05.19.899,Visual.Search_priyanshiAU2220101,2024.1.5,None,2024-10-05 15h05.26.315319 +0530,
28,0,28,0,49.687768700008746,,49.67229420004878,5,49.687768700008746,49.687768700008746,0.010005899996031076,51.33783510001376,[0.2625],[0.315],[1],[0],[0],[1.6554999999934807],['target'],297215,001,2024-10-05_15h05.19.899,Visual.Search_priyanshiAU2220101,2024.1.5,None,2024-10-05 15h05.26.315319 +0530,
29,0,29,0,51.369293400028255,,51.34041940001771,10,51.369293400028255,51.369293400028255,0.02066709997598082,53.419649700052105,[0.41875],[0.34],[1],[0],[0],[2.0587390000000596],['target'],297215,001,2024-10-05_15h05.19.899,Visual.Search_priyanshiAU2220101,2024.1.5,None,2024-10-05 15h05.26.315319 +0530,
30,0,30,0,53.4373797000153,,53.42179849999957,5,53.4373797000153,53.4373797000153,0.01002610003342852,55.56957069999771,[0.438125],[-0.27375],[1],[0],[0],[2.13780600001337],['target'],297215,001,2024-10-05_15h05.19.899,Visual.Search_priyanshiAU2220101,2024.1.5,None,2024-10-05 15h05.26.315319 +0530,
31,0,31,0,55.58837350003887,,55.57283630000893,5,55.58837350003887,55.58837350003887,0.010290000005625188,57.15382370003499,[-0.139375],[-0.38125],[1],[0],[0],[1.5708728000172414],['target'],297215,001,2024-10-05_15h05.19.899,Visual.Search_priyanshiAU2220101,2024.1.5,None,2024-10-05 15h05.26.315319 +0530,
32,0,32,0,57.184261800022796,,57.15680820000125,10,57.184261800022796,57.184261800022796,0.019662000006064773,59.27020339999581,[-0.42625],[0.37625],[1],[0],[0],[2.0940285000251606],['target'],297215,001,2024-10-05_15h05.19.899,Visual.Search_priyanshiAU2220101,2024.1.5,None,2024-10-05 15h05.26.315319 +0530,
33,0,33,0,59.29948800004786,,59.27234910003608,10,59.29948800004786,59.29948800004786,0.019055399985518306,61.70381770003587,[0.10875],[-0.455],[1],[0],[0],[2.412428900017403],['target'],297215,001,2024-10-05_15h05.19.899,Visual.Search_priyanshiAU2220101,2024.1.5,None,2024-10-05 15h05.26.315319 +0530,
34,0,34,0,61.723312900052406,,61.70667600003071,5,61.723312900052406,61.723312900052406,0.011488199990708381,63.520858100033365,[-0.0175],[0.26875],[1],[0],[0],[1.802720399980899],['target'],297215,001,2024-10-05_15h05.19.899,Visual.Search_priyanshiAU2220101,2024.1.5,None,2024-10-05 15h05.26.315319 +0530,
35,0,35,0,63.55170890002046,,63.524065600009635,10,63.55170890002046,63.55170890002046,0.0197393000125885,65.53584970004158,[0.208125],[0.476875],[1],[0],[0],[1.9922944999998435],['target'],297215,001,2024-10-05_15h05.19.899,Visual.Search_priyanshiAU2220101,2024.1.5,None,2024-10-05 15h05.26.315319 +0530,
36,0,36,0,65.56661860004533,,65.53885290003382,10,65.56661860004533,65.56661860004533,0.020061399962287396,67.33593920001294,[0.416875],[0.220625],[1],[0],[0],[1.7772052999935113],['target'],297215,001,2024-10-05_15h05.19.899,Visual.Search_priyanshiAU2220101,2024.1.5,None,2024-10-05 15h05.26.315319 +0530,
37,0,37,0,67.35396600002423,,67.3382883000304,5,67.35396600002423,67.35396600002423,0.009767100040335208,69.13644920004299,[0.055625],[-0.246875],[1],[0],[0],[1.788479799986817],['target'],297215,001,2024-10-05_15h05.19.899,Visual.Search_priyanshiAU2220101,2024.1.5,None,2024-10-05 15h05.26.315319 +0530,
38,0,38,0,69.16651140002068,,69.1385909000528,10,69.16651140002068,69.16651140002068,0.019372499955352396,70.48627809999743,[0.10375],[0.15],[1],[0],[0],[1.3283492000191472],[],297215,001,2024-10-05_15h05.19.899,Visual.Search_priyanshiAU2220101,2024.1.5,None,2024-10-05 15h05.26.315319 +0530,
39,0,39,0,70.51555170002393,,70.48862830002327,10,70.51555170002393,70.51555170002393,0.018835900002159178,73.60238590004155,[0.1975],[-0.445625],[1],[0],[0],[3.095035999955144],['target'],297215,001,2024-10-05_15h05.19.899,Visual.Search_priyanshiAU2220101,2024.1.5,None,2024-10-05 15h05.26.315319 +0530,
40,0,40,0,73.62020699999994,,73.60455320001347,5,73.62020699999994,73.62020699999994,0.009849999973084778,75.6693004000117,[0.23875],[0.426875],[1],[0],[0],[2.0549038000172004],['target'],297215,001,2024-10-05_15h05.19.899,Visual.Search_priyanshiAU2220101,2024.1.5,None,2024-10-05 15h05.26.315319 +0530,
41,0,41,0,75.68839940003818,,75.67249760002596,5,75.68839940003818,75.68839940003818,0.01004079997073859,77.71902320004301,[0.048125],[-0.4575],[1],[0],[0],[2.0368040000321344],['target'],297215,001,2024-10-05_15h05.19.899,Visual.Search_priyanshiAU2220101,2024.1.5,None,2024-10-05 15h05.26.315319 +0530,
42,0,42,0,77.73736050003208,,77.72115470003337,5,77.73736050003208,77.73736050003208,0.01023640000494197,79.87003160000313,[0.42],[0.078125],[1],[0],[0],[2.1385910999961197],['target'],297215,001,2024-10-05_15h05.19.899,Visual.Search_priyanshiAU2220101,2024.1.5,None,2024-10-05 15h05.26.315319 +0530,
43,0,43,0,79.88837260002038,,79.87223770003766,5,79.88837260002038,79.88837260002038,0.009990200051106513,81.15348820004147,[0.230625],[0.468125],[1],[0],[0],[1.2712678000098094],['target'],297215,001,2024-10-05_15h05.19.899,Visual.Search_priyanshiAU2220101,2024.1.5,None,2024-10-05 15h05.26.315319 +0530,
44,0,44,0,81.1727688999963,,81.15631760004908,5,81.1727688999963,81.1727688999963,0.010173299990128726,82.96906200004742,[-0.178125],[-0.31375],[1],[0],[0],[1.8025593000347726],['target'],297215,001,2024-10-05_15h05.19.899,Visual.Search_priyanshiAU2220101,2024.1.5,None,2024-10-05 15h05.26.315319 +0530,
45,0,45,0,83.00102530000731,,82.97242730000289,10,83.00102530000731,83.00102530000731,0.02066699997521937,84.61868040001718,[0.1975],[0.381875],[1],[0],[0],[1.6259546999935992],['target'],297215,001,2024-10-05_15h05.19.899,Visual.Search_priyanshiAU2220101,2024.1.5,None,2024-10-05 15h05.26.315319 +0530,
46,0,46,0,84.64805519999936,,84.62083180004265,10,84.64805519999936,84.64805519999936,0.019031599978916347,86.3526670000283,[-0.085],[0.28375],[1],[0],[0],[1.71282680000877],['target'],297215,001,2024-10-05_15h05.19.899,Visual.Search_priyanshiAU2220101,2024.1.5,None,2024-10-05 15h05.26.315319 +0530,
47,0,47,0,86.37075330002699,,86.35513790004188,5,86.37075330002699,86.37075330002699,0.009831500006839633,87.93568540003616,[-0.03],[-0.061875],[1],[0],[0],[1.57060650002677],['target'],297215,001,2024-10-05_15h05.19.899,Visual.Search_priyanshiAU2220101,2024.1.5,None,2024-10-05 15h05.26.315319 +0530,
48,0,48,0,87.968400200014,,87.93965010001557,10,87.968400200014,87.968400200014,0.02076889999443665,89.55265900003724,[0.141875],[-0.241875],[1],[0],[0],[1.5927708999952301],['target'],297215,001,2024-10-05_15h05.19.899,Visual.Search_priyanshiAU2220101,2024.1.5,None,2024-10-05 15h05.26.315319 +0530,
49,0,49,0,89.57084520003991,,89.55480010004248,5,89.57084520003991,89.57084520003991,0.010057900042738765,91.98600950004766,[0.449375],[-0.134375],[1],[0],[0],[2.4211973000201397],['target'],297215,001,2024-10-05_15h05.19.899,Visual.Search_priyanshiAU2220101,2024.1.5,None,2024-10-05 15h05.26.315319 +0530,
50,0,50,0,92.01494700001786,,91.98811860004207,10,92.01494700001786,92.01494700001786,0.018654399958904833,93.30295570002636,[0.28875],[-0.185625],[1],[0],[0],[1.2962304999819025],['target'],297215,001,2024-10-05_15h05.19.899,Visual.Search_priyanshiAU2220101,2024.1.5,None,2024-10-05 15h05.26.315319 +0530,
51,0,51,0,93.33289620000869,,93.30533550004475,10,93.33289620000869,93.33289620000869,0.018922200019005686,97.7862331000506,[-0.43375],[0.446875],[1],[0],[0],[4.462031900009606],['target'],297215,001,2024-10-05_15h05.19.899,Visual.Search_priyanshiAU2220101,2024.1.5,None,2024-10-05 15h05.26.315319 +0530,
52,0,52,0,97.81574590003584,,97.78839120001066,10,97.81574590003584,97.81574590003584,0.019137300027068704,99.81889500003308,[0.36875],[-0.17625],[1],[0],[0],[2.0114605000126176],['target'],297215,001,2024-10-05_15h05.19.899,Visual.Search_priyanshiAU2220101,2024.1.5,None,2024-10-05 15h05.26.315319 +0530,
53,0,53,0,99.83671780000441,,99.82104250002885,5,99.83671780000441,99.83671780000441,0.009894000017084181,101.61897100001806,[-0.16],[0.096875],[1],[0],[0],[1.7880325999576598],['target'],297215,001,2024-10-05_15h05.19.899,Visual.Search_priyanshiAU2220101,2024.1.5,None,2024-10-05 15h05.26.315319 +0530,
54,0,54,0,101.63679590000538,,101.62118620000547,5,101.63679590000538,101.63679590000538,0.009809200011659414,103.58639030001359,[0.18875],[-0.44625],[1],[0],[0],[1.9551714999834076],['target'],297215,001,2024-10-05_15h05.19.899,Visual.Search_priyanshiAU2220101,2024.1.5,None,2024-10-05 15h05.26.315319 +0530,
55,0,55,0,103.6169645000482,,103.58970630000113,10,103.6169645000482,103.6169645000482,0.019126700004562736,105.93525460001547,[-0.43875],[-0.46375],[1],[0],[0],[2.3265598000143655],['target'],297215,001,2024-10-05_15h05.19.899,Visual.Search_priyanshiAU2220101,2024.1.5,None,2024-10-05 15h05.26.315319 +0530,
56,0,56,0,105.96467760001542,,105.93740520003485,10,105.96467760001542,105.96467760001542,0.01872310001635924,107.3686462000478,[-0.33625],[-0.24375],[1],[0],[0],[1.4124658000073396],['target'],297215,001,2024-10-05_15h05.19.899,Visual.Search_priyanshiAU2220101,2024.1.5,None,2024-10-05 15h05.26.315319 +0530,
57,0,57,0,107.39847720001126,,107.37087500002235,10,107.39847720001126,107.39847720001126,0.01915559999179095,109.93476880004164,[0.455625],[-0.36375],[1],[0],[0],[2.5447640999918804],['target'],297215,001,2024-10-05_15h05.19.899,Visual.Search_priyanshiAU2220101,2024.1.5,None,2024-10-05 15h05.26.315319 +0530,
58,0,58,0,109.96484940004302,,109.9369329000474,10,109.96484940004302,109.96484940004302,0.01881820004200563,111.5511783999973,[0.105],[-0.1525],[1],[0],[0],[1.5954876000178047],['target'],297215,001,2024-10-05_15h05.19.899,Visual.Search_priyanshiAU2220101,2024.1.5,None,2024-10-05 15h05.26.315319 +0530,
59,0,59,0,111.58069980004802,,111.55349650001153,10,111.58069980004802,111.58069980004802,0.019078100041951984,114.1180439000018,[-0.315625],[0.130625],[1],[0],[0],[2.5454462000052445],['target'],297215,001,2024-10-05_15h05.19.899,Visual.Search_priyanshiAU2220101,2024.1.5,None,2024-10-05 15h05.26.315319 +0530,
60,0,60,0,114.13602269999683,,114.12025900004664,5,114.13602269999683,114.13602269999683,0.009801000007428229,115.81836259999545,[-0.498125],[0.166875],[1],[0],[0],[1.6883061000262387],['target'],297215,001,2024-10-05_15h05.19.899,Visual.Search_priyanshiAU2220101,2024.1.5,None,2024-10-05 15h05.26.315319 +0530,
61,0,61,0,115.83693190000486,,115.82051890000002,5,115.83693190000486,115.83693190000486,0.010099400009494275,119.01804080000147,[-0.50125],[0.07125],[1],[0],[0],[3.187604199978523],['target'],297215,001,2024-10-05_15h05.19.899,Visual.Search_priyanshiAU2220101,2024.1.5,None,2024-10-05 15h05.26.315319 +0530,
62,0,62,0,119.04788210004335,,119.0203020000481,10,119.04788210004335,119.04788210004335,0.01928900001803413,121.00103959999979,[-0.2975],[-0.3825],[1],[0],[0],[1.9615071999724023],[],297215,001,2024-10-05_15h05.19.899,Visual.Search_priyanshiAU2220101,2024.1.5,None,2024-10-05 15h05.26.315319 +0530,
63,0,63,0,121.01896890002536,,121.00317530002212,5,121.01896890002536,121.01896890002536,0.009775200043804944,122.5357472000178,[-0.106875],[0.380625],[1],[0],[0],[1.5228088999865577],['target'],297215,001,2024-10-05_15h05.19.899,Visual.Search_priyanshiAU2220101,2024.1.5,None,2024-10-05 15h05.26.315319 +0530,
64,0,64,0,122.55458470003214,,122.53880810004193,5,122.55458470003214,122.55458470003214,0.010146800021175295,124.25178450002568,[0.341875],[0.439375],[1],[0],[0],[1.7028799999970943],['target'],297215,001,2024-10-05_15h05.19.899,Visual.Search_priyanshiAU2220101,2024.1.5,None,2024-10-05 15h05.26.315319 +0530,
65,0,65,0,124.28260100004263,,124.25478700001258,10,124.28260100004263,124.28260100004263,0.019140299991704524,126.20233480003662,[0.308125],[-0.3575],[1],[0],[0],[1.9285757000325248],['target'],297215,001,2024-10-05_15h05.19.899,Visual.Search_priyanshiAU2220101,2024.1.5,None,2024-10-05 15h05.26.315319 +0530,
66,0,66,0,126.23252060002415,,126.20448040001793,10,126.23252060002415,126.23252060002415,0.019017199985682964,127.8344920000527,[-0.17125],[-0.14625],[1],[0],[0],[1.610984200029634],['target'],297215,001,2024-10-05_15h05.19.899,Visual.Search_priyanshiAU2220101,2024.1.5,None,2024-10-05 15h05.26.315319 +0530,
67,0,67,0,127.86526069999672,,127.83704060001764,10,127.86526069999672,127.86526069999672,0.01869469997473061,129.55148510000436,[-0.463125],[0.2975],[1],[0],[0],[1.6957462999853306],['target'],297215,001,2024-10-05_15h05.19.899,Visual.Search_priyanshiAU2220101,2024.1.5,None,2024-10-05 15h05.26.315319 +0530,
68,0,68,0,129.5826500999974,,129.5542761000106,10,129.5826500999974,129.5826500999974,0.019769600010477006,131.068507100048,[-0.043125],[0.165625],[1],[0],[0],[1.4947112000081688],['target'],297215,001,2024-10-05_15h05.19.899,Visual.Search_priyanshiAU2220101,2024.1.5,None,2024-10-05 15h05.26.315319 +0530,
69,0,69,0,131.08605090004858,,131.07065200002398,5,131.08605090004858,131.08605090004858,0.00980970001546666,132.90192420000676,[0.39875],[-0.02],[1],[0],[0],[1.821276200003922],['target'],297215,001,2024-10-05_15h05.19.899,Visual.Search_priyanshiAU2220101,2024.1.5,None,2024-10-05 15h05.26.315319 +0530,
70,0,70,0,132.93677900003968,,132.90768730000127,10,132.93677900003968,132.93677900003968,0.020925499964505434,134.71826250001322,[0.374375],[-0.396875],[1],[0],[0],[1.7900737000163645],['target'],297215,001,2024-10-05_15h05.19.899,Visual.Search_priyanshiAU2220101,2024.1.5,None,2024-10-05 15h05.26.315319 +0530,
71,0,71,0,134.74869950005086,,134.72045200003777,10,134.74869950005086,134.74869950005086,0.01870080002117902,136.6843055000063,[-0.193125],[-0.02375],[1],[0],[0],[1.945162000018172],['target'],297215,001,2024-10-05_15h05.19.899,Visual.Search_priyanshiAU2220101,2024.1.5,None,2024-10-05 15h05.26.315319 +0530,
72,0,72,0,136.70237930002622,,136.6865096000256,5,136.70237930002622,136.70237930002622,0.009752599988132715,138.23422680003569,[0.258125],[0.31625],[1],[0],[0],[1.538135799986776],['target'],297215,001,2024-10-05_15h05.19.899,Visual.Search_priyanshiAU2220101,2024.1.5,None,2024-10-05 15h05.26.315319 +0530,
73,0,73,0,138.26408390002325,,138.23639960004948,10,138.26408390002325,138.26408390002325,0.01906229997985065,139.4504855000414,[0.1225],[0.08],[1],[0],[0],[1.1950483999680728],['target'],297215,001,2024-10-05_15h05.19.899,Visual.Search_priyanshiAU2220101,2024.1.5,None,2024-10-05 15h05.26.315319 +0530,
74,0,74,0,139.48092390003148,,139.45278280001367,10,139.48092390003148,139.48092390003148,0.01995260000694543,141.63394540001173,[-0.12375],[0.436875],[1],[0],[0],[2.1613457000348717],['target'],297215,001,2024-10-05_15h05.19.899,Visual.Search_priyanshiAU2220101,2024.1.5,None,2024-10-05 15h05.26.315319 +0530,
75,0,75,0,141.6530840000487,,141.63617010001326,5,141.6530840000487,141.6530840000487,0.009633700014092028,142.767235300038,[-0.13375],[0.4575],[1],[0],[0],[1.121508200012613],['target'],297215,001,2024-10-05_15h05.19.899,Visual.Search_priyanshiAU2220101,2024.1.5,None,2024-10-05 15h05.26.315319 +0530,
76,0,76,0,142.79689320002217,,142.76936560001923,10,142.79689320002217,142.79689320002217,0.018596100038848817,144.3504735000315,[0.305625],[0.09625],[1],[0],[0],[1.562555100012105],['target'],297215,001,2024-10-05_15h05.19.899,Visual.Search_priyanshiAU2220101,2024.1.5,None,2024-10-05 15h05.26.315319 +0530,
77,0,77,0,144.38020290003624,,144.35265300003812,10,144.38020290003624,144.38020290003624,0.01872890000231564,146.71824660000857,[-0.325625],[0.305],[1],[0],[0],[2.3469785999623127],['target'],297215,001,2024-10-05_15h05.19.899,Visual.Search_priyanshiAU2220101,2024.1.5,None,2024-10-05 15h05.26.315319 +0530,
78,0,78,0,146.73610860004555,,146.72044020000612,5,146.73610860004555,146.73610860004555,0.009826199966482818,148.5175388000207,[0.260625],[-0.1525],[1],[0],[0],[1.7871406999765895],['target'],297215,001,2024-10-05_15h05.19.899,Visual.Search_priyanshiAU2220101,2024.1.5,None,2024-10-05 15h05.26.315319 +0530,
79,0,79,0,148.5480949000339,,148.52045470004668,10,148.5480949000339,148.5480949000339,0.018959100008942187,150.33489130000817,[-0.264375],[-0.098125],[1],[0],[0],[1.7956184999784455],['target'],297215,001,2024-10-05_15h05.19.899,Visual.Search_priyanshiAU2220101,2024.1.5,None,2024-10-05 15h05.26.315319 +0530,
80,0,80,0,150.3645997000276,,150.33737330004806,10,150.3645997000276,150.3645997000276,0.01875139999901876,152.5001695000101,[-0.34875],[-0.440625],[1],[0],[0],[2.144134900008794],['target'],297215,001,2024-10-05_15h05.19.899,Visual.Search_priyanshiAU2220101,2024.1.5,None,2024-10-05 15h05.26.315319 +0530,
81,0,81,0,152.5180397000513,,152.5024067000486,5,152.5180397000513,152.5180397000513,0.009972000028938055,154.13352309999755,[-0.47625],[-0.310625],[1],[0],[0],[1.6212262999615632],['target'],297215,001,2024-10-05_15h05.19.899,Visual.Search_priyanshiAU2220101,2024.1.5,None,2024-10-05 15h05.26.315319 +0530,
82,0,82,0,154.16352000000188,,154.13564510003198,10,154.16352000000188,154.16352000000188,0.01896160002797842,155.71681350003928,[-0.23375],[-0.060625],[1],[0],[0],[1.5622818000265397],['target'],297215,001,2024-10-05_15h05.19.899,Visual.Search_priyanshiAU2220101,2024.1.5,None,2024-10-05 15h05.26.315319 +0530,
83,0,83,0,155.74706280004466,,155.71895430004224,10,155.74706280004466,155.74706280004466,0.018648500030394644,157.6168781000306,[-0.166875],[-0.365],[1],[0],[0],[1.8793977000168525],['target'],297215,001,2024-10-05_15h05.19.899,Visual.Search_priyanshiAU2220101,2024.1.5,None,2024-10-05 15h05.26.315319 +0530,
84,0,84,0,157.64659420005046,,157.61902260000352,10,157.64659420005046,157.64659420005046,0.018793900031596422,159.76718830002937,[0.259375],[-0.0775],[1],[0],[0],[2.1293691000319086],['target'],297215,001,2024-10-05_15h05.19.899,Visual.Search_priyanshiAU2220101,2024.1.5,None,2024-10-05 15h05.26.315319 +0530,
85,0,85,0,159.7977402000106,,159.7693258000072,10,159.7977402000106,159.7977402000106,0.01884450000943616,161.18480340001406,[0.325625],[0.03875],[1],[0],[0],[1.396612400014419],['target'],297215,001,2024-10-05_15h05.19.899,Visual.Search_priyanshiAU2220101,2024.1.5,None,2024-10-05 15h05.26.315319 +0530,
86,0,86,0,161.20350360003067,,161.18711340002483,5,161.20350360003067,161.20350360003067,0.009753199992701411,163.06714810000267,[-0.29875],[0.1175],[1],[0],[0],[1.8703262999770232],['target'],297215,001,2024-10-05_15h05.19.899,Visual.Search_priyanshiAU2220101,2024.1.5,None,2024-10-05 15h05.26.315319 +0530,
87,0,87,0,163.0857393000042,,163.06948370003374,5,163.0857393000042,163.0857393000042,0.01044679997721687,164.71694750001188,[-0.041875],[0.360625],[1],[0],[0],[1.636976899986621],['target'],297215,001,2024-10-05_15h05.19.899,Visual.Search_priyanshiAU2220101,2024.1.5,None,2024-10-05 15h05.26.315319 +0530,
88,0,88,0,164.73534620000282,,164.71953610004857,5,164.73534620000282,164.73534620000282,0.009939600015059114,166.70086860004812,[-0.315],[-0.18375],[1],[0],[0],[1.9712861999869347],['target'],297215,001,2024-10-05_15h05.19.899,Visual.Search_priyanshiAU2220101,2024.1.5,None,2024-10-05 15h05.26.315319 +0530,
89,0,89,0,166.7332770000212,,166.7046326000127,10,166.7332770000212,166.7332770000212,0.01937769999494776,168.56664319999982,[-0.503125],[-0.23125],[1],[0],[0],[1.8428805000148714],[],297215,001,2024-10-05_15h05.19.899,Visual.Search_priyanshiAU2220101,2024.1.5,None,2024-10-05 15h05.26.315319 +0530,
90,0,90,0,168.58476769999834,,168.56913519999944,5,168.58476769999834,168.58476769999834,0.010017699969466776,170.4508226000471,[-0.28],[-0.34375],[1],[0],[0],[1.871589899994433],['target'],297215,001,2024-10-05_15h05.19.899,Visual.Search_priyanshiAU2220101,2024.1.5,None,2024-10-05 15h05.26.315319 +0530,
91,0,91,0,170.46957970003132,,170.45391530002235,5,170.46957970003132,170.46957970003132,0.010308600030839443,171.8331024000072,[-0.23875],[-0.091875],[1],[0],[0],[1.3689616000046954],['target'],297215,001,2024-10-05_15h05.19.899,Visual.Search_priyanshiAU2220101,2024.1.5,None,2024-10-05 15h05.26.315319 +0530,
92,0,92,0,171.86219190002885,,171.83548570005223,10,171.86219190002885,171.86219190002885,0.01877199998125434,173.400572500017,[-0.343125],[-0.365],[1],[0],[0],[1.546399399987422],['target'],297215,001,2024-10-05_15h05.19.899,Visual.Search_priyanshiAU2220101,2024.1.5,None,2024-10-05 15h05.26.315319 +0530,
93,0,93,0,173.41847970004892,,173.4027311000391,5,173.41847970004892,173.41847970004892,0.009993900021072477,175.36727820005035,[-0.075625],[0.104375],[1],[0],[0],[1.9543139999732375],['target'],297215,001,2024-10-05_15h05.19.899,Visual.Search_priyanshiAU2220101,2024.1.5,None,2024-10-05 15h05.26.315319 +0530,
94,0,94,0,175.39810819999548,,175.37087700003758,10,175.39810819999548,175.39810819999548,0.019347700057551265,176.7847277999972,[-0.414375],[-0.036875],[1],[0],[0],[1.3946799999685027],['target'],297215,001,2024-10-05_15h05.19.899,Visual.Search_priyanshiAU2220101,2024.1.5,None,2024-10-05 15h05.26.315319 +0530,
95,0,95,0,176.80227860005107,,176.7868786000181,5,176.80227860005107,176.80227860005107,0.009776899998541921,178.26784570002928,[0.350625],[-0.13],[1],[0],[0],[1.4709320000256412],['target'],297215,001,2024-10-05_15h05.19.899,Visual.Search_priyanshiAU2220101,2024.1.5,None,2024-10-05 15h05.26.315319 +0530,
96,0,96,0,178.29810519999592,,178.27123050001683,10,178.29810519999592,178.29810519999592,0.019048099988140166,180.00010460003978,[0.47375],[0.30875],[1],[0],[0],[1.7099913000129163],['target'],297215,001,2024-10-05_15h05.19.899,Visual.Search_priyanshiAU2220101,2024.1.5,None,2024-10-05 15h05.26.315319 +0530,
97,0,97,0,180.02900310000405,,180.00252330000512,10,180.02900310000405,180.02900310000405,0.018670300021767616,182.04938890004996,[0.315],[-0.41],[1],[0],[0],[2.02825789997587],['target'],297215,001,2024-10-05_15h05.19.899,Visual.Search_priyanshiAU2220101,2024.1.5,None,2024-10-05 15h05.26.315319 +0530,
98,0,98,0,182.06679680000525,,182.05151650001062,5,182.06679680000525,182.06679680000525,0.009770700009539723,183.65022810001392,[-0.07375],[-0.040625],[1],[0],[0],[1.58871400001226],['target'],297215,001,2024-10-05_15h05.19.899,Visual.Search_priyanshiAU2220101,2024.1.5,None,2024-10-05 15h05.26.315319 +0530,
99,0,99,0,183.66942680004286,,183.65361040004063,5,183.66942680004286,183.66942680004286,0.010417100042104721,186.08281450002687,[0.48125],[-0.15],[1],[0],[0],[2.4190645000198856],['target'],297215,001,2024-10-05_15h05.19.899,Visual.Search_priyanshiAU2220101,2024.1.5,None,2024-10-05 15h05.26.315319 +0530,
100,0,100,0,186.11342629999854,,186.08534640003927,10,186.11342629999854,186.11342629999854,0.019340300001204014,187.86746790003963,[-0.295],[0.286875],[1],[0],[0],[1.7630061999661848],['target'],297215,001,2024-10-05_15h05.19.899,Visual.Search_priyanshiAU2220101,2024.1.5,None,2024-10-05 15h05.26.315319 +0530,
101,0,101,0,187.8852504999959,,187.8696920000366,5,187.8852504999959,187.8852504999959,0.009966199984773993,190.16686930001015,[0.469375],[-0.138125],[1],[0],[0],[2.287291600019671],['target'],297215,001,2024-10-05_15h05.19.899,Visual.Search_priyanshiAU2220101,2024.1.5,None,2024-10-05 15h05.26.315319 +0530,
102,0,102,0,190.1996521000401,,190.16954120004084,10,190.1996521000401,190.1996521000401,0.02136330003850162,192.58272290002787,[0.05375],[0.135625],[1],[0],[0],[2.391991299984511],['target'],297215,001,2024-10-05_15h05.19.899,Visual.Search_priyanshiAU2220101,2024.1.5,None,2024-10-05 15h05.26.315319 +0530,
103,0,103,0,192.60086050000973,,192.58484830003,5,192.60086050000973,192.60086050000973,0.009712399973068386,194.33274780004285,[-0.40125],[0.39125],[1],[0],[0],[1.7380320999654941],['target'],297215,001,2024-10-05_15h05.19.899,Visual.Search_priyanshiAU2220101,2024.1.5,None,2024-10-05 15h05.26.315319 +0530,
104,0,104,0,194.36266130005242,,194.33573839999735,10,194.36266130005242,194.36266130005242,0.01873950002482161,196.24953000003006,[0.153125],[0.206875],[1],[0],[0],[1.8948936000233516],['target'],297215,001,2024-10-05_15h05.19.899,Visual.Search_priyanshiAU2220101,2024.1.5,None,2024-10-05 15h05.26.315319 +0530,
105,0,105,0,196.2796035000356,,196.25228110002354,10,196.2796035000356,196.2796035000356,0.018799000012222677,198.1497265000362,[0.466875],[0.24625],[1],[0],[0],[1.8787823999882676],['target'],297215,001,2024-10-05_15h05.19.899,Visual.Search_priyanshiAU2220101,2024.1.5,None,2024-10-05 15h05.26.315319 +0530,
106,0,106,0,198.1791245000204,,198.15200860000914,10,198.1791245000204,198.1791245000204,0.01913510001031682,199.9502244000323,[0.131875],[-0.26625],[1],[0],[0],[1.7791649000137113],['target'],297215,001,2024-10-05_15h05.19.899,Visual.Search_priyanshiAU2220101,2024.1.5,None,2024-10-05 15h05.26.315319 +0530,
107,0,107,0,199.98018500005128,,199.95256040000822,10,199.98018500005128,199.98018500005128,0.01921919995220378,201.76693270000396,[0.50625],[0.399375],[1],[0],[0],[1.7951138999778777],[],297215,001,2024-10-05_15h05.19.899,Visual.Search_priyanshiAU2220101,2024.1.5,None,2024-10-05 15h05.26.315319 +0530,
108,0,108,0,201.796673200035,,201.7690865000477,10,201.796673200035,201.796673200035,0.019577300001401454,203.3650993000483,[-0.078125],[0.0075],[1],[0],[0],[1.576478200033307],[],297215,001,2024-10-05_15h05.19.899,Visual.Search_priyanshiAU2220101,2024.1.5,None,2024-10-05 15h05.26.315319 +0530,
109,0,109,0,203.3947679999983,,203.36755280004581,10,203.3947679999983,203.3947679999983,0.019675999996252358,205.14897380000912,[0.403125],[-0.11],[1],[0],[0],[1.7617131999577396],['target'],297215,001,2024-10-05_15h05.19.899,Visual.Search_priyanshiAU2220101,2024.1.5,None,2024-10-05 15h05.26.315319 +0530,
110,0,110,0,205.1669049000484,,205.1511914000148,5,205.1669049000484,205.1669049000484,0.010094700031913817,206.88182200002484,[0.198125],[0.17375],[1],[0],[0],[1.7206160000059754],['target'],297215,001,2024-10-05_15h05.19.899,Visual.Search_priyanshiAU2220101,2024.1.5,None,2024-10-05 15h05.26.315319 +0530,
111,0,111,0,206.90246470004786,,206.8861105000251,5,206.90246470004786,206.90246470004786,0.01187660003779456,208.98312180000357,[-0.2075],[0.14],[1],[0],[0],[2.085682800039649],['target'],297215,001,2024-10-05_15h05.19.899,Visual.Search_priyanshiAU2220101,2024.1.5,None,2024-10-05 15h05.26.315319 +0530,
112,0,112,0,209.00124820001656,,208.98532930004876,5,209.00124820001656,209.00124820001656,0.010318499989807606,210.61507280002115,[0.068125],[0.00125],[1],[0],[0],[1.6194483999861404],['target'],297215,001,2024-10-05_15h05.19.899,Visual.Search_priyanshiAU2220101,2024.1.5,None,2024-10-05 15h05.26.315319 +0530,
113,0,113,0,210.63452770002186,,210.6187007999979,5,210.63452770002186,210.63452770002186,0.010717099998146296,212.26622430002317,[-0.36875],[0.438125],[1],[0],[0],[1.6369790000026114],['target'],297215,001,2024-10-05_15h05.19.899,Visual.Search_priyanshiAU2220101,2024.1.5,None,2024-10-05 15h05.26.315319 +0530,
114,0,114,0,212.28621099999873,,212.26924880000297,5,212.28621099999873,212.28621099999873,0.011649599997326732,213.7657795000123,[-0.19625],[0.236875],[1],[0],[0],[1.4850747000309639],['target'],297215,001,2024-10-05_15h05.19.899,Visual.Search_priyanshiAU2220101,2024.1.5,None,2024-10-05 15h05.26.315319 +0530,
115,0,115,0,213.7953739000368,,213.76810470002238,10,213.7953739000368,213.7953739000368,0.019734399975277483,216.18198220001068,[0.0275],[-0.4375],[1],[0],[0],[2.394233600003645],['target'],297215,001,2024-10-05_15h05.19.899,Visual.Search_priyanshiAU2220101,2024.1.5,None,2024-10-05 15h05.26.315319 +0530,
116,0,116,0,216.19975180004258,,216.1841650000424,5,216.19975180004258,216.19975180004258,0.009882799990009516,217.6981422000099,[0.064375],[0.1925],[1],[0],[0],[1.5039800999802537],['target'],297215,001,2024-10-05_15h05.19.899,Visual.Search_priyanshiAU2220101,2024.1.5,None,2024-10-05 15h05.26.315319 +0530,
117,0,117,0,217.72820150002372,,217.7012503000442,10,217.72820150002372,217.72820150002372,0.01973820000421256,219.46607150003547,[-0.301875],[-0.08125],[1],[0],[0],[1.7450978999841027],['target'],297215,001,2024-10-05_15h05.19.899,Visual.Search_priyanshiAU2220101,2024.1.5,None,2024-10-05 15h05.26.315319 +0530,
118,0,118,0,219.48413090000395,,219.46823580004275,5,219.48413090000395,219.48413090000395,0.010058899992145598,221.41509210004006,[-0.41125],[0.409375],[1],[0],[0],[1.9367283000028692],[],297215,001,2024-10-05_15h05.19.899,Visual.Search_priyanshiAU2220101,2024.1.5,None,2024-10-05 15h05.26.315319 +0530,
119,0,119,0,221.44507710001199,,221.41801680001663,10,221.44507710001199,221.44507710001199,0.019609999959357083,223.64891750004608,[0.243125],[-0.319375],[1],[0],[0],[2.2114170999848284],['target'],297215,001,2024-10-05_15h05.19.899,Visual.Search_priyanshiAU2220101,2024.1.5,None,2024-10-05 15h05.26.315319 +0530,
120,0,120,0,223.66687960003037,,223.6511728000478,5,223.66687960003037,223.66687960003037,0.010090299998410046,225.2320558000356,[-0.091875],[-0.01625],[1],[0],[0],[1.5708968000253662],['target'],297215,001,2024-10-05_15h05.19.899,Visual.Search_priyanshiAU2220101,2024.1.5,None,2024-10-05 15h05.26.315319 +0530,
121,0,121,0,225.25209399999585,,225.2349908000324,5,225.25209399999585,225.25209399999585,0.011521399952471256,227.2649143000017,[-0.43],[0.26125],[1],[0],[0],[2.018623999960255],['target'],297215,001,2024-10-05_15h05.19.899,Visual.Search_priyanshiAU2220101,2024.1.5,None,2024-10-05 15h05.26.315319 +0530,
122,0,122,0,227.29514170001494,,227.26732890005223,10,227.29514170001494,227.29514170001494,0.01968450000276789,229.13195390003966,[-0.08875],[-0.368125],[1],[0],[0],[1.8450712999911048],['target'],297215,001,2024-10-05_15h05.19.899,Visual.Search_priyanshiAU2220101,2024.1.5,None,2024-10-05 15h05.26.315319 +0530,
123,0,123,0,229.14950360002695,,229.13416270003654,5,229.14950360002695,229.14950360002695,0.010276600020006299,231.39836990000913,[-0.143125],[-0.18375],[1],[0],[0],[2.2537670000456274],['target'],297215,001,2024-10-05_15h05.19.899,Visual.Search_priyanshiAU2220101,2024.1.5,None,2024-10-05 15h05.26.315319 +0530,
124,0,124,0,231.42867600003956,,231.4009670999949,10,231.42867600003956,231.42867600003956,0.019656800024677068,233.16554170002928,[0.040625],[0.350625],[1],[0],[0],[1.7450430000317283],['target'],297215,001,2024-10-05_15h05.19.899,Visual.Search_priyanshiAU2220101,2024.1.5,None,2024-10-05 15h05.26.315319 +0530,
125,0,125,0,233.1993422000087,,233.16771230002632,10,233.1993422000087,233.1993422000087,0.01940749998902902,234.96471810003277,[0.1],[0.138125],[1],[0],[0],[1.7775430000037886],['target'],297215,001,2024-10-05_15h05.19.899,Visual.Search_priyanshiAU2220101,2024.1.5,None,2024-10-05 15h05.26.315319 +0530,
126,0,126,0,234.99836320005124,,234.9669159000041,10,234.99836320005124,234.99836320005124,0.01930410001659766,236.53186380001716,[-0.293125],[0.33125],[1],[0],[0],[1.5458112999913283],['target'],297215,001,2024-10-05_15h05.19.899,Visual.Search_priyanshiAU2220101,2024.1.5,None,2024-10-05 15h05.26.315319 +0530,
127,0,127,0,236.55114049999975,,236.53408160002436,5,236.55114049999975,236.55114049999975,0.010089499992318451,237.7140645000036,[-0.2675],[0.398125],[1],[0],[0],[1.1700248999986798],['target'],297215,001,2024-10-05_15h05.19.899,Visual.Search_priyanshiAU2220101,2024.1.5,None,2024-10-05 15h05.26.315319 +0530,
128,0,128,0,237.73252290004166,,237.71622729999945,5,237.73252290004166,237.73252290004166,0.010657400009222329,239.7326377000427,[-0.03375],[0.236875],[1],[0],[0],[2.0057955000083894],['target'],297215,001,2024-10-05_15h05.19.899,Visual.Search_priyanshiAU2220101,2024.1.5,None,2024-10-05 15h05.26.315319 +0530,
129,0,129,0,239.75526050000917,,239.735264500021,5,239.75526050000917,239.75526050000917,0.011176800006069243,241.2144960000296,[-0.3],[0.20875],[1],[0],[0],[1.4681912999949418],['target'],297215,001,2024-10-05_15h05.19.899,Visual.Search_priyanshiAU2220101,2024.1.5,None,2024-10-05 15h05.26.315319 +0530,
130,0,130,0,241.23709090001648,,241.21724130003713,5,241.23709090001648,241.23709090001648,0.01069570000981912,243.06395830004476,[0.02],[0.1525],[1],[0],[0],[1.8361833000089973],['target'],297215,001,2024-10-05_15h05.19.899,Visual.Search_priyanshiAU2220101,2024.1.5,None,2024-10-05 15h05.26.315319 +0530,
131,0,131,0,243.08412480005063,,243.06624640000518,5,243.08412480005063,243.08412480005063,0.010827300022356212,245.46453880000627,[-0.229375],[-0.41],[1],[0],[0],[2.387524499965366],['target'],297215,001,2024-10-05_15h05.19.899,Visual.Search_priyanshiAU2220101,2024.1.5,None,2024-10-05 15h05.26.315319 +0530,
132,0,132,0,245.48887420003302,,245.46798170002876,5,245.48887420003302,245.48887420003302,0.012387600028887391,246.9135308000259,[-0.399375],[-0.436875],[1],[0],[0],[1.4335437000263482],['target'],297215,001,2024-10-05_15h05.19.899,Visual.Search_priyanshiAU2220101,2024.1.5,None,2024-10-05 15h05.26.315319 +0530,
133,0,133,0,246.93141610000748,,246.9157023000298,5,246.93141610000748,246.93141610000748,0.009910300024785101,248.63231900002575,[0.424375],[0.3725],[1],[0],[0],[1.706672800006345],['target'],297215,001,2024-10-05_15h05.19.899,Visual.Search_priyanshiAU2220101,2024.1.5,None,2024-10-05 15h05.26.315319 +0530,
134,0,134,0,248.650480900018,,248.63469740003347,5,248.650480900018,248.650480900018,0.010140199970919639,250.6804218000034,[0.05125],[-0.065],[1],[0],[0],[2.0356222999980673],['target'],297215,001,2024-10-05_15h05.19.899,Visual.Search_priyanshiAU2220101,2024.1.5,None,2024-10-05 15h05.26.315319 +0530,
135,0,135,0,250.710608399997,,250.68286709999666,10,250.710608399997,250.710608399997,0.01930380001431331,252.51431140000932,[-0.059375],[-0.148125],[1],[0],[0],[1.8122294999775477],['target'],297215,001,2024-10-05_15h05.19.899,Visual.Search_priyanshiAU2220101,2024.1.5,None,2024-10-05 15h05.26.315319 +0530,
136,0,136,0,252.54778010002337,,252.51646810001694,10,252.54778010002337,252.54778010002337,0.019186000048648566,254.78136340004858,[-0.48125],[0.444375],[1],[0],[0],[2.2457646000548266],['target'],297215,001,2024-10-05_15h05.19.899,Visual.Search_priyanshiAU2220101,2024.1.5,None,2024-10-05 15h05.26.315319 +0530,
137,0,137,0,254.8141111000441,,254.7838241000427,10,254.8141111000441,254.8141111000441,0.01962550001917407,256.3469825000502,[-0.14125],[0.23625],[1],[0],[0],[1.543576700030826],['target'],297215,001,2024-10-05_15h05.19.899,Visual.Search_priyanshiAU2220101,2024.1.5,None,2024-10-05 15h05.26.315319 +0530,
138,0,138,0,256.3651536999969,,256.34950780001236,5,256.3651536999969,256.3651536999969,0.009831800009123981,257.6314368000021,[-0.254375],[-0.1275],[1],[0],[0],[1.2719573000213131],['target'],297215,001,2024-10-05_15h05.19.899,Visual.Search_priyanshiAU2220101,2024.1.5,None,2024-10-05 15h05.26.315319 +0530,
139,0,139,0,257.6630569000263,,257.6341224000207,10,257.6630569000263,257.6630569000263,0.01939730002777651,259.06515150005,[-0.503125],[-0.166875],[1],[0],[0],[1.41179160005413],['target'],297215,001,2024-10-05_15h05.19.899,Visual.Search_priyanshiAU2220101,2024.1.5,None,2024-10-05 15h05.26.315319 +0530,
140,0,140,0,259.0973543000291,,259.0673102000146,10,259.0973543000291,259.0973543000291,0.019411299959756434,261.1467206000234,[0.27],[-0.04375],[1],[0],[0],[2.060048899962567],['target'],297215,001,2024-10-05_15h05.19.899,Visual.Search_priyanshiAU2220101,2024.1.5,None,2024-10-05 15h05.26.315319 +0530,
141,0,141,0,261.1653399000061,,261.14914550003596,5,261.1653399000061,261.1653399000061,0.010028699995018542,262.9966733000474,[-0.383125],[-0.0925],[1],[0],[0],[1.837522399961017],['target'],297215,001,2024-10-05_15h05.19.899,Visual.Search_priyanshiAU2220101,2024.1.5,None,2024-10-05 15h05.26.315319 +0530,
142,0,142,0,263.03156060003676,,262.9992957000504,10,263.03156060003676,263.03156060003676,0.019389300025068223,265.11392720002914,[-0.37375],[-0.10625],[1],[0],[0],[2.0952695999876596],['target'],297215,001,2024-10-05_15h05.19.899,Visual.Search_priyanshiAU2220101,2024.1.5,None,2024-10-05 15h05.26.315319 +0530,
143,0,143,0,265.13431009999476,,265.116108700051,5,265.13431009999476,265.13431009999476,0.010333099984563887,266.48156380001456,[-0.433125],[-0.161875],[1],[0],[0],[1.35510460002115],['target'],297215,001,2024-10-05_15h05.19.899,Visual.Search_priyanshiAU2220101,2024.1.5,None,2024-10-05 15h05.26.315319 +0530,
144,0,144,0,266.50128650001716,,266.4847621000372,5,266.50128650001716,266.50128650001716,0.010561100032646209,268.3309485000209,[0.141875],[-0.06375],[1],[0],[0],[1.8358370999922045],['target'],297215,001,2024-10-05_15h05.19.899,Visual.Search_priyanshiAU2220101,2024.1.5,None,2024-10-05 15h05.26.315319 +0530,
145,0,145,0,268.3515771999955,,268.33308720000787,5,268.3515771999955,268.3515771999955,0.009910999971907586,270.0477230999968,[0.33],[-0.27625],[1],[0],[0],[1.7048133999924175],['target'],297215,001,2024-10-05_15h05.19.899,Visual.Search_priyanshiAU2220101,2024.1.5,None,2024-10-05 15h05.26.315319 +0530,
146,0,146,0,270.0656402000459,,270.04989160003606,5,270.0656402000459,270.0656402000459,0.010080099978949875,271.87999700004,[0.471875],[-0.13125],[1],[0],[0],[1.8199565000250004],['target'],297215,001,2024-10-05_15h05.19.899,Visual.Search_priyanshiAU2220101,2024.1.5,None,2024-10-05 15h05.26.315319 +0530,
147,0,147,0,271.9003559999983,,271.8827224000124,5,271.9003559999983,271.9003559999983,0.011090399988461286,273.5305617999984,[0.48625],[0.080625],[1],[0],[0],[1.6368389999843203],['target'],297215,001,2024-10-05_15h05.19.899,Visual.Search_priyanshiAU2220101,2024.1.5,None,2024-10-05 15h05.26.315319 +0530,
148,0,148,0,273.55332540004747,,273.5345229000086,5,273.55332540004747,273.55332540004747,0.01185720000648871,275.24706960003823,[0.011875],[0.27625],[1],[0],[0],[1.7010384000022896],['target'],297215,001,2024-10-05_15h05.19.899,Visual.Search_priyanshiAU2220101,2024.1.5,None,2024-10-05 15h05.26.315319 +0530,
149,0,149,0,275.2662858000258,,275.2504396000295,5,275.2662858000258,275.2662858000258,0.010308599972631782,276.69711130001815,[-0.2975],[0.036875],[1],[0],[0],[1.436531700019259],['target'],297215,001,2024-10-05_15h05.19.899,Visual.Search_priyanshiAU2220101,2024.1.5,None,2024-10-05 15h05.26.315319 +0530,
150,0,150,0,276.7321785000386,,276.69932650000555,10,276.7321785000386,276.7321785000386,0.019648100016638637,278.1809428000124,[-0.27875],[-0.221875],[1],[0],[0],[1.4620780000113882],['target'],297215,001,2024-10-05_15h05.19.899,Visual.Search_priyanshiAU2220101,2024.1.5,None,2024-10-05 15h05.26.315319 +0530,
151,0,151,0,278.2103178999969,,278.18312350002816,10,278.2103178999969,278.2103178999969,0.019441200012806803,279.9467922000331,[0.20125],[-0.410625],[1],[0],[0],[1.7442004000185989],['target'],297215,001,2024-10-05_15h05.19.899,Visual.Search_priyanshiAU2220101,2024.1.5,None,2024-10-05 15h05.26.315319 +0530,
152,0,152,0,279.9657563000219,,279.95014020003146,5,279.9657563000219,279.9657563000219,0.010308900033123791,282.112874100043,[0.136875],[0.411875],[1],[0],[0],[2.1526112999999896],['target'],297215,001,2024-10-05_15h05.19.899,Visual.Search_priyanshiAU2220101,2024.1.5,None,2024-10-05 15h05.26.315319 +0530,
153,0,153,0,282.1442629999947,,282.11511519999476,10,282.1442629999947,282.1442629999947,0.019414399983361363,283.8801269000396,[0.310625],[-0.03125],[1],[0],[0],[1.7456178999855183],['target'],297215,001,2024-10-05_15h05.19.899,Visual.Search_priyanshiAU2220101,2024.1.5,None,2024-10-05 15h05.26.315319 +0530,
154,0,154,0,283.89878610003507,,283.88234310003463,5,283.89878610003507,283.89878610003507,0.010165899991989136,286.2810603000107,[-0.465625],[-0.4725],[1],[0],[0],[2.3884345999686047],['target'],297215,001,2024-10-05_15h05.19.899,Visual.Search_priyanshiAU2220101,2024.1.5,None,2024-10-05 15h05.26.315319 +0530,
155,0,155,0,286.3130213000113,,286.28432040003827,10,286.3130213000113,286.3130213000113,0.019981599994935095,287.66455710004084,[0.194375],[-0.30875],[1],[0],[0],[1.3605067000025883],[],297215,001,2024-10-05_15h05.19.899,Visual.Search_priyanshiAU2220101,2024.1.5,None,2024-10-05 15h05.26.315319 +0530,
156,0,156,0,287.6827780000167,,287.6668549000169,5,287.6827780000167,287.6827780000167,0.010233999986667186,289.39643399999477,[-0.480625],[0.131875],[1],[0],[0],[1.7193188999663107],[],297215,001,2024-10-05_15h05.19.899,Visual.Search_priyanshiAU2220101,2024.1.5,None,2024-10-05 15h05.26.315319 +0530,
157,0,157,0,289.41605380002875,,289.40007480001077,5,289.41605380002875,289.41605380002875,0.010356699989642948,290.9806304000085,[0.45375],[0.121875],[1],[0],[0],[1.570137100003194],['target'],297215,001,2024-10-05_15h05.19.899,Visual.Search_priyanshiAU2220101,2024.1.5,None,2024-10-05 15h05.26.315319 +0530,
158,0,158,0,291.00191570003517,,290.98435420001624,5,291.00191570003517,291.00191570003517,0.011891799978911877,293.7132182000205,[0.005],[0.01375],[1],[0],[0],[2.7173139000078663],[],297215,001,2024-10-05_15h05.19.899,Visual.Search_priyanshiAU2220101,2024.1.5,None,2024-10-05 15h05.26.315319 +0530,
159,0,159,0,293.73359020001953,,293.717192000011,5,293.73359020001953,293.73359020001953,0.011569599970243871,295.3980660000234,[-0.103125],[-0.104375],[1],[0],[0],[1.6696193999960087],['target'],297215,001,2024-10-05_15h05.19.899,Visual.Search_priyanshiAU2220101,2024.1.5,None,2024-10-05 15h05.26.315319 +0530,
160,0,160,0,295.43120510003064,,295.40032580000116,10,295.43120510003064,295.43120510003064,0.019408300053328276,297.2466829000041,[-0.315],[0.35625],[1],[0],[0],[1.827064499957487],['target'],297215,001,2024-10-05_15h05.19.899,Visual.Search_priyanshiAU2220101,2024.1.5,None,2024-10-05 15h05.26.315319 +0530,
161,0,161,0,297.2643242000486,,297.2488678000518,5,297.2643242000486,297.2643242000486,0.00996380002470687,299.28010269999504,[-0.515],[-0.34625],[1],[0],[0],[2.0211401999695227],[],297215,001,2024-10-05_15h05.19.899,Visual.Search_priyanshiAU2220101,2024.1.5,None,2024-10-05 15h05.26.315319 +0530,
162,0,162,0,299.2997675000224,,299.283412000048,5,299.2997675000224,299.2997675000224,0.010772799956612289,301.3797751000384,[0.456875],[0.173125],[1],[0],[0],[2.085794100014027],['target'],297215,001,2024-10-05_15h05.19.899,Visual.Search_priyanshiAU2220101,2024.1.5,None,2024-10-05 15h05.26.315319 +0530,
163,0,163,0,301.39985730004264,,301.38264389999676,5,301.39985730004264,301.39985730004264,0.010493400041013956,303.11408160004066,[0.2725],[-0.251875],[1],[0],[0],[1.7211031999904662],['target'],297215,001,2024-10-05_15h05.19.899,Visual.Search_priyanshiAU2220101,2024.1.5,None,2024-10-05 15h05.26.315319 +0530,
164,0,164,0,303.1328744000057,,303.11670610000147,5,303.1328744000057,303.1328744000057,0.010218999988865107,304.7966802000301,[-0.1225],[-0.403125],[1],[0],[0],[1.6698400000459515],['target'],297215,001,2024-10-05_15h05.19.899,Visual.Search_priyanshiAU2220101,2024.1.5,None,2024-10-05 15h05.26.315319 +0530,
165,0,165,0,304.82598910003435,,304.7988765000482,10,304.82598910003435,304.82598910003435,0.019555300008505583,306.7296491000452,[-0.011875],[0.059375],[1],[0],[0],[1.9112411999958567],['target'],297215,001,2024-10-05_15h05.19.899,Visual.Search_priyanshiAU2220101,2024.1.5,None,2024-10-05 15h05.26.315319 +0530,
166,0,166,0,306.7619685000391,,306.73285750002833,10,306.7619685000391,306.7619685000391,0.020487300003878772,308.3789577000425,[0.33875],[-0.356875],[1],[0],[0],[1.6259423000155948],['target'],297215,001,2024-10-05_15h05.19.899,Visual.Search_priyanshiAU2220101,2024.1.5,None,2024-10-05 15h05.26.315319 +0530,
167,0,167,0,308.41376150003634,,308.3814201000496,10,308.41376150003634,308.41376150003634,0.019632300012744963,310.24628070002655,[-0.375],[0.030625],[1],[0],[0],[1.8452301999786869],['target'],297215,001,2024-10-05_15h05.19.899,Visual.Search_priyanshiAU2220101,2024.1.5,None,2024-10-05 15h05.26.315319 +0530,
168,0,168,0,310.28162840002915,,310.24866250000196,10,310.28162840002915,310.28162840002915,0.019628699985332787,312.6140163000091,[0.439375],[-0.131875],[1],[0],[0],[2.345666799985338],['target'],297215,001,2024-10-05_15h05.19.899,Visual.Search_priyanshiAU2220101,2024.1.5,None,2024-10-05 15h05.26.315319 +0530,
169,0,169,0,312.64821590000065,,312.6162020000047,10,312.64821590000065,312.64821590000065,0.019519100023899227,314.6792575000436,[-0.29625],[0.441875],[1],[0],[0],[2.043552000017371],['target'],297215,001,2024-10-05_15h05.19.899,Visual.Search_priyanshiAU2220101,2024.1.5,None,2024-10-05 15h05.26.315319 +0530,
170,0,170,0,314.6976185000385,,314.6814297999954,5,314.6976185000385,314.6976185000385,0.010056000028271228,316.8285630000173,[0.39875],[-0.00875],[1],[0],[0],[2.1371948000160046],['target'],297215,001,2024-10-05_15h05.19.899,Visual.Search_priyanshiAU2220101,2024.1.5,None,2024-10-05 15h05.26.315319 +0530,
171,0,171,0,316.847107300011,,316.83080970001174,5,316.847107300011,316.847107300011,0.010091800009831786,318.83080140000675,[0.25875],[0.491875],[1],[0],[0],[1.9897923999815248],['target'],297215,001,2024-10-05_15h05.19.899,Visual.Search_priyanshiAU2220101,2024.1.5,None,2024-10-05 15h05.26.315319 +0530,
172,0,172,0,318.85083330003545,,318.8336010000203,5,318.85083330003545,318.85083330003545,0.01047039998229593,320.3633499999996,[0.319375],[0.031875],[1],[0],[0],[1.519043000007514],['target'],297215,001,2024-10-05_15h05.19.899,Visual.Search_priyanshiAU2220101,2024.1.5,None,2024-10-05 15h05.26.315319 +0530,
173,0,173,0,320.3951664000051,,320.3670719000511,10,320.3951664000051,320.3951664000051,0.020156099984887987,321.7963161000516,[0.256875],[-0.136875],[1],[0],[0],[1.4094616000074893],['target'],297215,001,2024-10-05_15h05.19.899,Visual.Search_priyanshiAU2220101,2024.1.5,None,2024-10-05 15h05.26.315319 +0530,
174,0,174,0,321.81419190001907,,321.79851680004504,5,321.81419190001907,321.81419190001907,0.010463199985679239,323.3299547000206,[0.278125],[0.28625],[1],[0],[0],[1.521041099971626],['target'],297215,001,2024-10-05_15h05.19.899,Visual.Search_priyanshiAU2220101,2024.1.5,None,2024-10-05 15h05.26.315319 +0530,
175,0,175,0,323.3482122000423,,323.33218640001724,5,323.3482122000423,323.3482122000423,0.010399800026789308,324.77894250000827,[-0.1275],[0.165],[1],[0],[0],[1.4363818000419997],['target'],297215,001,2024-10-05_15h05.19.899,Visual.Search_priyanshiAU2220101,2024.1.5,None,2024-10-05 15h05.26.315319 +0530,
176,0,176,0,324.8122296000365,,324.78266900003655,10,324.8122296000365,324.8122296000365,0.02161809999961406,326.1616248000064,[0.304375],[0.070625],[1],[0],[0],[1.357529200031422],['target'],297215,001,2024-10-05_15h05.19.899,Visual.Search_priyanshiAU2220101,2024.1.5,None,2024-10-05 15h05.26.315319 +0530,
177,0,177,0,326.1935607000487,,326.1637864000513,10,326.1935607000487,326.1935607000487,0.01931399997556582,327.546179500001,[0.174375],[0.193125],[1],[0],[0],[1.3631552999722771],['target'],297215,001,2024-10-05_15h05.19.899,Visual.Search_priyanshiAU2220101,2024.1.5,None,2024-10-05 15h05.26.315319 +0530,
178,0,178,0,327.56514770002104,,327.54838200000813,5,327.56514770002104,327.56514770002104,0.010478899988811463,329.79525110003306,[-0.28625],[0.256875],[1],[0],[0],[2.236510999966413],['target'],297215,001,2024-10-05_15h05.19.899,Visual.Search_priyanshiAU2220101,2024.1.5,None,2024-10-05 15h05.26.315319 +0530,
179,0,179,0,329.82972690003226,,329.7974241000484,10,329.82972690003226,329.82972690003226,0.01934370002709329,331.7954065000522,[0.37],[-0.110625],[1],[0],[0],[1.9787038000067696],['target'],297215,001,2024-10-05_15h05.19.899,Visual.Search_priyanshiAU2220101,2024.1.5,None,2024-10-05 15h05.26.315319 +0530,
180,0,180,0,331.8160089000012,,331.79759180004476,5,331.8160089000012,331.8160089000012,0.00997259997529909,333.34675830003107,[-0.018125],[-0.241875],[1],[0],[0],[1.5391510999761522],['target'],297215,001,2024-10-05_15h05.19.899,Visual.Search_priyanshiAU2220101,2024.1.5,None,2024-10-05 15h05.26.315319 +0530,
181,0,181,0,333.38277490000473,,333.3495993000106,10,333.38277490000473,333.38277490000473,0.019611700030509382,334.77891770005226,[0.38125],[0.45125],[1],[0],[0],[1.4098652999964543],['target'],297215,001,2024-10-05_15h05.19.899,Visual.Search_priyanshiAU2220101,2024.1.5,None,2024-10-05 15h05.26.315319 +0530,
182,0,182,0,334.80873849999625,,334.78107860003365,10,334.80873849999625,334.80873849999625,0.02000320004299283,336.2956222000066,[-0.484375],[0.225],[1],[0],[0],[1.4946819000178948],['target'],297215,001,2024-10-05_15h05.19.899,Visual.Search_priyanshiAU2220101,2024.1.5,None,2024-10-05 15h05.26.315319 +0530,
183,0,183,0,336.3253629000392,,336.29783789999783,10,336.3253629000392,336.3253629000392,0.01947699999436736,338.7448321999982,[0.444375],[0.133125],[1],[0],[0],[2.4274643000098877],['target'],297215,001,2024-10-05_15h05.19.899,Visual.Search_priyanshiAU2220101,2024.1.5,None,2024-10-05 15h05.26.315319 +0530,
184,0,184,0,338.77975990000414,,338.74725270003546,10,338.77975990000414,338.77975990000414,0.019239399989601225,340.1625958000077,[0.08125],[0.21375],[1],[0],[0],[1.3960576999816112],['target'],297215,001,2024-10-05_15h05.19.899,Visual.Search_priyanshiAU2220101,2024.1.5,None,2024-10-05 15h05.26.315319 +0530,
185,0,185,0,340.18123970000306,,340.16480290004984,5,340.18123970000306,340.18123970000306,0.010118300036992878,341.295748500037,[0.0225],[0.203125],[1],[0],[0],[1.1206473999773152],['target'],297215,001,2024-10-05_15h05.19.899,Visual.Search_priyanshiAU2220101,2024.1.5,None,2024-10-05 15h05.26.315319 +0530,
186,0,186,0,341.31592340004863,,341.29895710002165,5,341.31592340004863,341.31592340004863,0.01030460000038147,342.9793497000355,[0.2],[-0.24875],[1],[0],[0],[1.6702760999905877],['target'],297215,001,2024-10-05_15h05.19.899,Visual.Search_priyanshiAU2220101,2024.1.5,None,2024-10-05 15h05.26.315319 +0530,
187,0,187,0,342.9983822000213,,342.98151539999526,5,342.9983822000213,342.9983822000213,0.010450900008436292,344.69452459999593,[-0.448125],[0.20125],[1],[0],[0],[1.7026721999864094],['target'],297215,001,2024-10-05_15h05.19.899,Visual.Search_priyanshiAU2220101,2024.1.5,None,2024-10-05 15h05.26.315319 +0530,
188,0,188,0,344.729667800013,,344.69738500000676,10,344.729667800013,344.729667800013,0.01940440002363175,346.6632206000504,[0.455],[-0.236875],[1],[0],[0],[1.9464560999767855],[],297215,001,2024-10-05_15h05.19.899,Visual.Search_priyanshiAU2220101,2024.1.5,None,2024-10-05 15h05.26.315319 +0530,
189,0,189,0,346.68131010001525,,346.6654115000274,5,346.68131010001525,346.68131010001525,0.010073099983856082,348.2954272000352,[-0.1975],[-0.02125],[1],[0],[0],[1.619951199973002],['target'],297215,001,2024-10-05_15h05.19.899,Visual.Search_priyanshiAU2220101,2024.1.5,None,2024-10-05 15h05.26.315319 +0530,
190,0,190,0,348.3146984000341,,348.2982269000495,5,348.3146984000341,348.3146984000341,0.01037560001714155,350.04496990004554,[-0.11375],[0.423125],[1],[0],[0],[1.7365423999726772],['target'],297215,001,2024-10-05_15h05.19.899,Visual.Search_priyanshiAU2220101,2024.1.5,None,2024-10-05 15h05.26.315319 +0530,
191,0,191,0,350.066149100021,,350.0472426000051,5,350.066149100021,350.066149100021,0.010163399972952902,351.66307200002484,[0.4025],[0.4675],[1],[0],[0],[1.6057140000048093],[],297215,001,2024-10-05_15h05.19.899,Visual.Search_priyanshiAU2220101,2024.1.5,None,2024-10-05 15h05.26.315319 +0530,
192,0,192,0,351.6830353999976,,351.66527840000344,5,351.6830353999976,351.6830353999976,0.00990439997985959,353.2610077999998,[-0.43375],[0.12625],[1],[0],[0],[1.58586649998324],[],297215,001,2024-10-05_15h05.19.899,Visual.Search_priyanshiAU2220101,2024.1.5,None,2024-10-05 15h05.26.315319 +0530,
193,0,193,0,353.27839839999797,,353.26320109999506,5,353.27839839999797,353.27839839999797,0.010076800012029707,354.3127176000271,[-0.40125],[0.111875],[1],[0],[0],[1.0394837000058033],['target'],297215,001,2024-10-05_15h05.19.899,Visual.Search_priyanshiAU2220101,2024.1.5,None,2024-10-05 15h05.26.315319 +0530,
194,0,194,0,354.34303810005076,,354.31493809999665,10,354.34303810005076,354.34303810005076,0.01930970000103116,356.478318700043,[0.176875],[-0.391875],[1],[0],[0],[2.1441352000110783],['target'],297215,001,2024-10-05_15h05.19.899,Visual.Search_priyanshiAU2220101,2024.1.5,None,2024-10-05 15h05.26.315319 +0530,
195,0,195,0,356.4961986000417,,356.4806251000264,5,356.4961986000417,356.4961986000417,0.00999489997047931,357.92831040004967,[0.3825],[-0.154375],[1],[0],[0],[1.437574899988249],['target'],297215,001,2024-10-05_15h05.19.899,Visual.Search_priyanshiAU2220101,2024.1.5,None,2024-10-05 15h05.26.315319 +0530,
196,0,196,0,357.96350569999777,,357.9322530000354,10,357.96350569999777,357.96350569999777,0.02098119998117909,359.8294068000396,[-0.176875],[0.450625],[1],[0],[0],[1.8766397999715991],['target'],297215,001,2024-10-05_15h05.19.899,Visual.Search_priyanshiAU2220101,2024.1.5,None,2024-10-05 15h05.26.315319 +0530,
197,0,197,0,359.8477098000003,,359.83164430002216,5,359.8477098000003,359.8477098000003,0.009992400009650737,361.36098830000265,[0.27],[0.370625],[1],[0],[0],[1.5193424999597482],['target'],297215,001,2024-10-05_15h05.19.899,Visual.Search_priyanshiAU2220101,2024.1.5,None,2024-10-05 15h05.26.315319 +0530,
198,0,198,0,361.3798504000297,,361.3641591000487,5,361.3798504000297,361.3798504000297,0.010437700024340302,363.22748190001585,[-0.22],[-0.02375],[1],[0],[0],[1.853112799988594],['target'],297215,001,2024-10-05_15h05.19.899,Visual.Search_priyanshiAU2220101,2024.1.5,None,2024-10-05 15h05.26.315319 +0530,
199,0,199,0,363.245472300041,,363.2297016000375,5,363.245472300041,363.245472300041,0.0100158000132069,365.12875250005163,[-0.084375],[0.070625],[1],[0],[0],[1.8891554999863729],['target'],297215,001,2024-10-05_15h05.19.899,Visual.Search_priyanshiAU2220101,2024.1.5,None,2024-10-05 15h05.26.315319 +0530,
