pos,corr_resp,thisN,thisTrialN,thisRepN,key_resp.keys,key_resp.corr,key_resp.rt,key_resp.duration,trials.thisRepN,trials.thisTrialN,trials.thisN,trials.thisIndex,trials_2.thisRepN,trials_2.thisTrialN,trials_2.thisN,trials_2.thisIndex,thisRow.t,notes,trial.started,fixation.started,line1.started,line2.started,line3.started,line4.started,fixation.stopped,probe.started,key_resp.started,trial.stopped,trials.key_resp.keys,trials.key_resp.corr,trials.key_resp.rt,trials.key_resp.duration,trials_2.key_resp.keys,trials_2.key_resp.corr,trials_2.key_resp.rt,trials_2.key_resp.duration,participant,session,date,expName,psychopyVersion,frameRate,expStart,
-50,x,0,0,0,x,1,2.5762761979999595,None,0,0,0,0,,,,,0.06452817800027333,,0.05068841100001009,0.06452817800027333,1.0044558110002981,1.0044558110002981,1.0044558110002981,1.0044558110002981,1.073906217000058,2.006482946000233,2.006482946000233,4.615317938000317,x,1,2.5762761979999595,None,,,,,956527,001,2024-10-17_22h47.21.728,motor sequence learning,2024.2.1,None,2024-10-17 22h47.32.257435 +0530,
150,v,1,1,0,v,1,1.8464753800003564,None,0,1,1,1,,,,,4.642348145000142,,4.615756271999999,4.642348145000142,5.61504849100038,5.61504849100038,5.61504849100038,5.61504849100038,5.644010033000086,6.616776779000247,6.616776779000247,8.479663904000063,v,1,1.8464753800003564,None,,,,,956527,001,2024-10-17_22h47.21.728,motor sequence learning,2024.2.1,None,2024-10-17 22h47.32.257435 +0530,
50,c,2,2,0,c,1,2.1238763080000354,None,0,2,2,2,,,,,8.492229311000301,,8.480196586000147,8.492229311000301,9.483634769000219,9.483634769000219,9.483634769000219,9.483634769000219,9.497109422999984,10.479149572000097,10.479149572000097,12.608444362000228,c,1,2.1238763080000354,None,,,,,956527,001,2024-10-17_22h47.21.728,motor sequence learning,2024.2.1,None,2024-10-17 22h47.32.257435 +0530,
-150,z,3,3,0,z,1,0.8274925559999247,None,0,3,3,3,,,,,12.619616108000173,,12.608813759999975,12.619616108000173,13.607748619000176,13.607748619000176,13.607748619000176,13.607748619000176,13.620958394000354,14.609169036000367,14.609169036000367,15.439572291000331,z,1,0.8274925559999247,None,,,,,956527,001,2024-10-17_22h47.21.728,motor sequence learning,2024.2.1,None,2024-10-17 22h47.32.257435 +0530,
-50,x,4,0,1,x,1,0.8078867360000004,None,1,0,4,0,,,,,15.451547936000225,,15.440125741999964,15.451547936000225,16.44272151300038,16.44272151300038,16.44272151300038,16.44272151300038,16.456737931000134,17.443178681000063,17.443178681000063,18.253510084000027,x,1,0.8078867360000004,None,,,,,956527,001,2024-10-17_22h47.21.728,motor sequence learning,2024.2.1,None,2024-10-17 22h47.32.257435 +0530,
150,v,5,1,1,v,1,0.8958715070002654,None,1,1,5,1,,,,,18.264704774000165,,18.253897197000242,18.264704774000165,19.251180628000384,19.251180628000384,19.251180628000384,19.251180628000384,19.264167507000366,20.258547226000246,20.258547226000246,21.161130183000296,v,1,0.8958715070002654,None,,,,,956527,001,2024-10-17_22h47.21.728,motor sequence learning,2024.2.1,None,2024-10-17 22h47.32.257435 +0530,
50,c,6,2,1,c,1,0.5273279000002731,None,1,2,6,2,,,,,21.172191919000397,,21.16148935800038,21.172191919000397,22.163261590000275,22.163261590000275,22.163261590000275,22.163261590000275,22.176821035000103,23.16064776500025,23.16064776500025,23.690305654999975,c,1,0.5273279000002731,None,,,,,956527,001,2024-10-17_22h47.21.728,motor sequence learning,2024.2.1,None,2024-10-17 22h47.32.257435 +0530,
-150,z,7,3,1,z,1,0.6548674430000574,None,1,3,7,3,,,,,23.702187116999994,,23.69075589000022,23.702187116999994,24.688122277000275,24.688122277000275,24.688122277000275,24.688122277000275,24.702482561000124,25.687696634000076,25.687696634000076,26.353094734000024,z,1,0.6548674430000574,None,,,,,956527,001,2024-10-17_22h47.21.728,motor sequence learning,2024.2.1,None,2024-10-17 22h47.32.257435 +0530,
-50,x,8,0,2,x,1,0.9844945459999508,None,2,0,8,0,,,,,26.363837526000225,,26.353463460000057,26.363837526000225,27.363882715000273,27.363882715000273,27.363882715000273,27.363882715000273,27.363882715000273,28.35261579400003,28.35261579400003,29.35280147499998,x,1,0.9844945459999508,None,,,,,956527,001,2024-10-17_22h47.21.728,motor sequence learning,2024.2.1,None,2024-10-17 22h47.32.257435 +0530,
150,v,9,1,2,v,1,0.9000560720000976,None,2,1,9,1,,,,,29.364541545000066,,29.35320902600006,29.364541545000066,30.36170753100032,30.36170753100032,30.36170753100032,30.36170753100032,30.36170753100032,31.360701709000296,31.360701709000296,32.26875497300034,v,1,0.9000560720000976,None,,,,,956527,001,2024-10-17_22h47.21.728,motor sequence learning,2024.2.1,None,2024-10-17 22h47.32.257435 +0530,
50,c,10,2,2,c,1,1.362166131000322,None,2,2,10,2,,,,,32.28054381000038,,32.26917206899998,32.28054381000038,33.275169885000196,33.275169885000196,33.275169885000196,33.275169885000196,33.300045929000134,34.27548138500015,34.27548138500015,35.64098468600014,c,1,1.362166131000322,None,,,,,956527,001,2024-10-17_22h47.21.728,motor sequence learning,2024.2.1,None,2024-10-17 22h47.32.257435 +0530,
-150,z,11,3,2,z,1,0.9478540270001758,None,2,3,11,3,,,,,35.653719962000196,,35.64149552000026,35.653719962000196,36.649815022999974,36.649815022999974,36.649815022999974,36.649815022999974,36.66308957199999,37.648694849000094,37.648694849000094,38.60491300400008,z,1,0.9478540270001758,None,,,,,956527,001,2024-10-17_22h47.21.728,motor sequence learning,2024.2.1,None,2024-10-17 22h47.32.257435 +0530,
-50,x,12,0,3,x,1,0.9714680619999854,None,3,0,12,0,,,,,38.616213023,,38.60527761000003,38.616213023,39.61049298500029,39.61049298500029,39.61049298500029,39.61049298500029,39.624588723000215,40.6123013360002,40.6123013360002,41.58855238900014,x,1,0.9714680619999854,None,,,,,956527,001,2024-10-17_22h47.21.728,motor sequence learning,2024.2.1,None,2024-10-17 22h47.32.257435 +0530,
150,v,13,1,3,v,1,1.897276045000126,None,3,1,13,1,,,,,41.60020033700039,,41.589051356000255,41.60020033700039,42.591839152000375,42.591839152000375,42.591839152000375,42.591839152000375,42.61665480600004,43.59479021900006,43.59479021900006,45.55346380800029,v,1,1.897276045000126,None,,,,,956527,001,2024-10-17_22h47.21.728,motor sequence learning,2024.2.1,None,2024-10-17 22h47.32.257435 +0530,
50,c,14,2,3,c,1,10.142200186000082,None,3,2,14,2,,,,,45.56805598600022,,45.55454528400014,45.56805598600022,46.56398327500028,46.56398327500028,46.56398327500028,46.56398327500028,46.56398327500028,47.56113120200007,47.56113120200007,57.70920960900003,c,1,10.142200186000082,None,,,,,956527,001,2024-10-17_22h47.21.728,motor sequence learning,2024.2.1,None,2024-10-17 22h47.32.257435 +0530,
-150,z,15,3,3,z,1,0.9117456940002739,None,3,3,15,3,,,,,57.720836168000005,,57.70958646899999,57.720836168000005,58.710639535000155,58.710639535000155,58.710639535000155,58.710639535000155,58.725095152999984,59.71138668599997,59.71138668599997,60.6307259160003,z,1,0.9117456940002739,None,,,,,956527,001,2024-10-17_22h47.21.728,motor sequence learning,2024.2.1,None,2024-10-17 22h47.32.257435 +0530,
-50,x,16,0,4,x,1,0.7515185669999482,None,4,0,16,0,,,,,60.64378669600001,,60.631211781000275,60.64378669600001,61.63762621700016,61.63762621700016,61.63762621700016,61.63762621700016,61.65167717899976,62.64228243700063,62.64228243700063,63.40276895800025,x,1,0.7515185669999482,None,,,,,956527,001,2024-10-17_22h47.21.728,motor sequence learning,2024.2.1,None,2024-10-17 22h47.32.257435 +0530,
150,v,17,1,4,v,1,0.7750047879999329,None,4,1,17,1,,,,,63.413540596000075,,63.403137476999746,63.413540596000075,64.410598037,64.410598037,64.410598037,64.410598037,64.410598037,65.4101430400001,65.4101430400001,66.19189810699982,v,1,0.7750047879999329,None,,,,,956527,001,2024-10-17_22h47.21.728,motor sequence learning,2024.2.1,None,2024-10-17 22h47.32.257435 +0530,
50,c,18,2,4,c,1,0.7638392310000199,None,4,2,18,2,,,,,66.20445850199985,,66.19237334899981,66.20445850199985,67.197517221,67.197517221,67.197517221,67.197517221,67.21132777100001,68.1933124330003,68.1933124330003,68.96202214300001,c,1,0.7638392310000199,None,,,,,956527,001,2024-10-17_22h47.21.728,motor sequence learning,2024.2.1,None,2024-10-17 22h47.32.257435 +0530,
-150,z,19,3,4,z,1,0.7777773170000728,None,4,3,19,3,,,,,68.9747839100005,,68.96239242300044,68.9747839100005,69.96289449000005,69.96289449000005,69.96289449000005,69.96289449000005,69.97817612500012,70.96655375300043,70.96655375300043,71.74830236200023,z,1,0.7777773170000728,None,,,,,956527,001,2024-10-17_22h47.21.728,motor sequence learning,2024.2.1,None,2024-10-17 22h47.32.257435 +0530,
-50,x,20,0,5,x,1,0.801863224999579,None,5,0,20,0,,,,,71.76025236600026,,71.74874540700011,71.76025236600026,72.76769995200038,72.76769995200038,72.76769995200038,72.76769995200038,72.76769995200038,73.74795466500063,73.74795466500063,74.55291547600018,x,1,0.801863224999579,None,,,,,956527,001,2024-10-17_22h47.21.728,motor sequence learning,2024.2.1,None,2024-10-17 22h47.32.257435 +0530,
150,v,21,1,5,v,1,0.9904799400001139,None,5,1,21,1,,,,,74.5639442480001,,74.55329395699982,74.5639442480001,75.55303211599994,75.55303211599994,75.55303211599994,75.55303211599994,75.56726434500024,76.5614444429998,76.5614444429998,77.55934625300006,v,1,0.9904799400001139,None,,,,,956527,001,2024-10-17_22h47.21.728,motor sequence learning,2024.2.1,None,2024-10-17 22h47.32.257435 +0530,
50,c,22,2,5,c,1,0.9719940000004499,None,5,2,22,2,,,,,77.5704842199998,,77.559714128,77.5704842199998,78.5572297270005,78.5572297270005,78.5572297270005,78.5572297270005,78.57042738800055,79.56413360499982,79.56413360499982,80.54315444200029,c,1,0.9719940000004499,None,,,,,956527,001,2024-10-17_22h47.21.728,motor sequence learning,2024.2.1,None,2024-10-17 22h47.32.257435 +0530,
-150,z,23,3,5,z,1,0.8645297099992604,None,5,3,23,3,,,,,80.5544522920004,,80.54368910499988,80.5544522920004,81.56437303099983,81.56437303099983,81.56437303099983,81.56437303099983,81.56437303099983,82.55147848600018,82.55147848600018,83.43117159599979,z,1,0.8645297099992604,None,,,,,956527,001,2024-10-17_22h47.21.728,motor sequence learning,2024.2.1,None,2024-10-17 22h47.32.257435 +0530,
-50,x,24,0,6,x,1,0.8656174369998553,None,6,0,24,0,,,,,83.44340732000046,,83.43171232499981,83.44340732000046,84.43920079200007,84.43920079200007,84.43920079200007,84.43920079200007,84.45222211900045,85.4422495140002,85.4422495140002,86.3208326429999,x,1,0.8656174369998553,None,,,,,956527,001,2024-10-17_22h47.21.728,motor sequence learning,2024.2.1,None,2024-10-17 22h47.32.257435 +0530,
150,v,25,1,6,v,1,0.872657664000144,None,6,1,25,1,,,,,86.33221147199993,,86.32130580800049,86.33221147199993,87.32391918500025,87.32391918500025,87.32391918500025,87.32391918500025,87.34121498200011,88.32404873299993,88.32404873299993,89.22289754599979,v,1,0.872657664000144,None,,,,,956527,001,2024-10-17_22h47.21.728,motor sequence learning,2024.2.1,None,2024-10-17 22h47.32.257435 +0530,
50,c,26,2,6,c,1,1.1294124180003564,None,6,2,26,2,,,,,89.23394947800034,,89.22328479599992,89.23394947800034,90.22768500000029,90.22768500000029,90.22768500000029,90.22768500000029,90.24239697300027,91.22635624399982,91.22635624399982,92.36352469999974,c,1,1.1294124180003564,None,,,,,956527,001,2024-10-17_22h47.21.728,motor sequence learning,2024.2.1,None,2024-10-17 22h47.32.257435 +0530,
-150,z,27,3,6,z,1,1.0853726659997847,None,6,3,27,3,,,,,92.37553282500039,,92.36390362400061,92.37553282500039,93.3635958710006,93.3635958710006,93.3635958710006,93.3635958710006,93.37711672900014,94.36093717300037,94.36093717300037,95.45497013500017,z,1,1.0853726659997847,None,,,,,956527,001,2024-10-17_22h47.21.728,motor sequence learning,2024.2.1,None,2024-10-17 22h47.32.257435 +0530,
-50,x,28,0,7,x,1,0.6872057489999861,None,7,0,28,0,,,,,95.46625434200041,,95.455332043,95.46625434200041,96.46244659700051,96.46244659700051,96.46244659700051,96.46244659700051,96.46244659700051,97.46370743699981,97.46370743699981,98.15332490100036,x,1,0.6872057489999861,None,,,,,956527,001,2024-10-17_22h47.21.728,motor sequence learning,2024.2.1,None,2024-10-17 22h47.32.257435 +0530,
150,v,29,1,7,v,1,0.8737654000005932,None,7,1,29,1,,,,,98.16421526500062,,98.1537028910002,98.16421526500062,99.16596282799992,99.16596282799992,99.16596282799992,99.16596282799992,99.18363663100035,100.1554133730001,100.1554133730001,101.03973390200053,v,1,0.8737654000005932,None,,,,,956527,001,2024-10-17_22h47.21.728,motor sequence learning,2024.2.1,None,2024-10-17 22h47.32.257435 +0530,
50,c,30,2,7,c,1,0.7768518610000683,None,7,2,30,2,,,,,101.05116710599987,,101.04009387900032,101.05116710599987,102.04911721800045,102.04911721800045,102.04911721800045,102.04911721800045,102.06579932300019,103.04228682500025,103.04228682500025,103.8276364340004,c,1,0.7768518610000683,None,,,,,956527,001,2024-10-17_22h47.21.728,motor sequence learning,2024.2.1,None,2024-10-17 22h47.32.257435 +0530,
-150,z,31,3,7,z,1,0.8169839970005341,None,7,3,31,3,,,,,103.84017898499997,,103.8279993910005,103.84017898499997,104.82510493500058,104.82510493500058,104.82510493500058,104.82510493500058,104.83978304099992,105.82511585200018,105.82511585200018,106.64734258100043,z,1,0.8169839970005341,None,,,,,956527,001,2024-10-17_22h47.21.728,motor sequence learning,2024.2.1,None,2024-10-17 22h47.32.257435 +0530,
-50,x,32,0,8,x,1,0.7346910770002069,None,8,0,32,0,,,,,106.65880931699985,,106.64781631200049,106.65880931699985,107.65665801800014,107.65665801800014,107.65665801800014,107.65665801800014,107.66888996199987,108.64889953100055,108.64889953100055,109.38818455200044,x,1,0.7346910770002069,None,,,,,956527,001,2024-10-17_22h47.21.728,motor sequence learning,2024.2.1,None,2024-10-17 22h47.32.257435 +0530,
150,v,33,1,8,v,1,0.7148058189995936,None,8,1,33,1,,,,,109.40065726200055,,109.38871296000025,109.40065726200055,110.3996784269998,110.3996784269998,110.3996784269998,110.3996784269998,110.41317726100033,111.40348709900036,111.40348709900036,112.12400213899991,v,1,0.7148058189995936,None,,,,,956527,001,2024-10-17_22h47.21.728,motor sequence learning,2024.2.1,None,2024-10-17 22h47.32.257435 +0530,
50,c,34,2,8,c,1,0.8027753779997511,None,8,2,34,2,,,,,112.13665493500002,,112.12443300800032,112.13665493500002,113.12757826999996,113.12757826999996,113.12757826999996,113.12757826999996,113.14311552499976,114.12569776100054,114.12569776100054,114.93353804400022,c,1,0.8027753779997511,None,,,,,956527,001,2024-10-17_22h47.21.728,motor sequence learning,2024.2.1,None,2024-10-17 22h47.32.257435 +0530,
-150,z,35,3,8,z,1,0.8427538869991622,None,8,3,35,3,,,,,114.94548188100043,,114.93401064100044,114.94548188100043,115.94366324300017,115.94366324300017,115.94366324300017,115.94366324300017,115.95798090800008,116.9423010860005,116.9423010860005,117.80030341200063,z,1,0.8427538869991622,None,,,,,956527,001,2024-10-17_22h47.21.728,motor sequence learning,2024.2.1,None,2024-10-17 22h47.32.257435 +0530,
-50,x,36,0,9,x,1,0.683973283999876,None,9,0,36,0,,,,,117.81120403900013,,117.80067814099993,117.81120403900013,118.80896068900029,118.80896068900029,118.80896068900029,118.80896068900029,118.80896068900029,119.81190097700028,119.81190097700028,120.5010988099998,x,1,0.683973283999876,None,,,,,956527,001,2024-10-17_22h47.21.728,motor sequence learning,2024.2.1,None,2024-10-17 22h47.32.257435 +0530,
150,v,37,1,9,v,1,0.7400734460006788,None,9,1,37,1,,,,,120.51183747799996,,120.50147183400031,120.51183747799996,121.51177758899985,121.51177758899985,121.51177758899985,121.51177758899985,121.51177758899985,122.50956109900062,122.50956109900062,123.26161676699985,v,1,0.7400734460006788,None,,,,,956527,001,2024-10-17_22h47.21.728,motor sequence learning,2024.2.1,None,2024-10-17 22h47.32.257435 +0530,
50,c,38,2,9,c,1,0.6939818589999049,None,9,2,38,2,,,,,123.27396606200045,,123.26196256899993,123.27396606200045,124.26493503699976,124.26493503699976,124.26493503699976,124.26493503699976,124.27929405500026,125.2672456690002,125.2672456690002,125.96365230699985,c,1,0.6939818589999049,None,,,,,956527,001,2024-10-17_22h47.21.728,motor sequence learning,2024.2.1,None,2024-10-17 22h47.32.257435 +0530,
-150,z,39,3,9,z,1,0.7032711789997848,None,9,3,39,3,,,,,125.97580378800058,,125.96418140800006,125.97580378800058,126.97417364700004,126.97417364700004,126.97417364700004,126.97417364700004,126.97417364700004,127.97450254299974,127.97450254299974,128.70519199599994,z,1,0.7032711789997848,None,,,,,956527,001,2024-10-17_22h47.21.728,motor sequence learning,2024.2.1,None,2024-10-17 22h47.32.257435 +0530,
-50,x,40,0,10,x,1,0.6917604150003172,None,10,0,40,0,,,,,128.71653370000013,,128.7055564520001,128.71653370000013,129.7134961450006,129.7134961450006,129.7134961450006,129.7134961450006,129.7134961450006,130.71086824500026,130.71086824500026,131.41199266400008,x,1,0.6917604150003172,None,,,,,956527,001,2024-10-17_22h47.21.728,motor sequence learning,2024.2.1,None,2024-10-17 22h47.32.257435 +0530,
150,v,41,1,10,v,1,0.8333445440002833,None,10,1,41,1,,,,,131.42431887400062,,131.4125088120004,131.42431887400062,132.42963711600032,132.42963711600032,132.42963711600032,132.42963711600032,132.42963711600032,133.41852736600003,133.41852736600003,134.25834269899997,v,1,0.8333445440002833,None,,,,,956527,001,2024-10-17_22h47.21.728,motor sequence learning,2024.2.1,None,2024-10-17 22h47.32.257435 +0530,
50,c,42,2,10,c,1,0.7102857360005146,None,10,2,42,2,,,,,134.27009775099987,,134.25871039500043,134.27009775099987,135.26050348299987,135.26050348299987,135.26050348299987,135.26050348299987,135.27499486399984,136.26216912900009,136.26216912900009,136.98271174400043,c,1,0.7102857360005146,None,,,,,956527,001,2024-10-17_22h47.21.728,motor sequence learning,2024.2.1,None,2024-10-17 22h47.32.257435 +0530,
-150,z,43,3,10,z,1,0.7219484810002541,None,10,3,43,3,,,,,136.99428474700062,,136.98309091300007,136.99428474700062,137.98539854900037,137.98539854900037,137.98539854900037,137.98539854900037,137.99870982899984,138.9791312860002,138.9791312860002,139.71114140200052,z,1,0.7219484810002541,None,,,,,956527,001,2024-10-17_22h47.21.728,motor sequence learning,2024.2.1,None,2024-10-17 22h47.32.257435 +0530,
-50,x,44,0,11,x,1,0.7202119600005972,None,11,0,44,0,,,,,139.72359767599983,,139.71150610999985,139.72359767599983,140.7152854360006,140.7152854360006,140.7152854360006,140.7152854360006,140.72902714300062,141.714616363,141.714616363,142.4497060839999,x,1,0.7202119600005972,None,,,,,956527,001,2024-10-17_22h47.21.728,motor sequence learning,2024.2.1,None,2024-10-17 22h47.32.257435 +0530,
150,v,45,1,11,v,1,0.8270090310006708,None,11,1,45,1,,,,,142.4603230080006,,142.4500883830001,142.4603230080006,143.44901047899975,143.44901047899975,143.44901047899975,143.44901047899975,143.46245788700026,144.4459098150005,144.4459098150005,145.28647736599987,v,1,0.8270090310006708,None,,,,,956527,001,2024-10-17_22h47.21.728,motor sequence learning,2024.2.1,None,2024-10-17 22h47.32.257435 +0530,
50,c,46,2,11,c,1,0.6910366609999983,None,11,2,46,2,,,,,145.29867520300058,,145.28690300900007,145.29867520300058,146.29392551200044,146.29392551200044,146.29392551200044,146.29392551200044,146.3079285130002,147.29572235099977,147.29572235099977,147.99151381300044,c,1,0.6910366609999983,None,,,,,956527,001,2024-10-17_22h47.21.728,motor sequence learning,2024.2.1,None,2024-10-17 22h47.32.257435 +0530,
-150,z,47,3,11,z,1,0.6741685910001252,None,11,3,47,3,,,,,148.0028959820006,,147.99203405900016,148.0028959820006,148.9918570470004,148.9918570470004,148.9918570470004,148.9918570470004,149.0060962450002,149.99688063999974,149.99688063999974,150.685471237,z,1,0.6741685910001252,None,,,,,956527,001,2024-10-17_22h47.21.728,motor sequence learning,2024.2.1,None,2024-10-17 22h47.32.257435 +0530,
150,v,0,0,0,v,1,2.048971580000398,None,,,,,0,0,0,1,150.70660230600015,,150.69559429399987,150.70660230600015,151.68967917600048,151.68967917600048,151.68967917600048,151.68967917600048,151.70262290900018,152.68587668700047,152.68587668700047,154.74124684400022,,,,,v,1,2.048971580000398,None,956527,001,2024-10-17_22h47.21.728,motor sequence learning,2024.2.1,None,2024-10-17 22h47.32.257435 +0530,
-50,x,1,1,0,x,1,0.7656979989997126,None,,,,,0,1,1,0,154.7527292260006,,154.74173416999975,154.7527292260006,155.73832883400019,155.73832883400019,155.73832883400019,155.73832883400019,155.75165248300027,156.74980654100045,156.74980654100045,157.52090671999986,,,,,x,1,0.7656979989997126,None,956527,001,2024-10-17_22h47.21.728,motor sequence learning,2024.2.1,None,2024-10-17 22h47.32.257435 +0530,
150,v,2,2,1,v,1,5.346271286999581,None,,,,,1,2,2,1,157.53204460500046,,157.52131891399995,157.53204460500046,158.5234567550001,158.5234567550001,158.5234567550001,158.5234567550001,158.53645408500006,159.52591780100056,159.52591780100056,164.8836814250003,,,,,v,1,5.346271286999581,None,956527,001,2024-10-17_22h47.21.728,motor sequence learning,2024.2.1,None,2024-10-17 22h47.32.257435 +0530,
50,c,3,3,0,c,1,8.334743225999773,None,,,,,0,3,3,2,164.89616938500012,,164.88407377800058,164.89616938500012,165.88637558500022,165.88637558500022,165.88637558500022,165.88637558500022,165.90035397700058,166.8895007699998,166.8895007699998,175.2418425310002,,,,,c,1,8.334743225999773,None,956527,001,2024-10-17_22h47.21.728,motor sequence learning,2024.2.1,None,2024-10-17 22h47.32.257435 +0530,
-50,x,4,4,1,x,1,2.287003931000072,None,,,,,1,4,4,0,175.2531950280004,,175.24234798299995,175.2531950280004,176.24341477000007,176.24341477000007,176.24341477000007,176.24341477000007,176.2573059600004,177.248215524,177.248215524,179.54371489899995,,,,,x,1,2.287003931000072,None,956527,001,2024-10-17_22h47.21.728,motor sequence learning,2024.2.1,None,2024-10-17 22h47.32.257435 +0530,
-150,z,5,5,0,z,1,1.6464227989999927,None,,,,,0,5,5,3,179.55527439299976,,179.54419311300035,179.55527439299976,180.55260181200038,180.55260181200038,180.55260181200038,180.55260181200038,180.55260181200038,181.5439054680005,181.5439054680005,183.19967273400061,,,,,z,1,1.6464227989999927,None,956527,001,2024-10-17_22h47.21.728,motor sequence learning,2024.2.1,None,2024-10-17 22h47.32.257435 +0530,
-150,z,6,6,1,z,1,3.2928636939996068,None,,,,,1,6,6,3,183.21084429200027,,183.20008890800045,183.21084429200027,184.2019762599998,184.2019762599998,184.2019762599998,184.2019762599998,184.21549774799996,185.19681454200008,185.19681454200008,188.50106653400007,,,,,z,1,3.2928636939996068,None,956527,001,2024-10-17_22h47.21.728,motor sequence learning,2024.2.1,None,2024-10-17 22h47.32.257435 +0530,
50,c,7,7,1,c,1,2.311679183000706,None,,,,,1,7,7,2,188.51710618400057,,188.501438668,188.51710618400057,189.50140442800011,189.50140442800011,189.50140442800011,189.50140442800011,189.5148622669999,190.49892243500062,190.49892243500062,192.82720282000037,,,,,c,1,2.311679183000706,None,956527,001,2024-10-17_22h47.21.728,motor sequence learning,2024.2.1,None,2024-10-17 22h47.32.257435 +0530,
50,c,8,8,2,c,1,0.8006144959999801,None,,,,,2,8,8,2,192.8398459590003,,192.82757702800018,192.8398459590003,193.8266963330002,193.8266963330002,193.8266963330002,193.8266963330002,193.84072233000052,194.83206982900037,194.83206982900037,195.635467523,,,,,c,1,0.8006144959999801,None,956527,001,2024-10-17_22h47.21.728,motor sequence learning,2024.2.1,None,2024-10-17 22h47.32.257435 +0530,
150,v,9,9,2,v,1,2.258830769999804,None,,,,,2,9,9,1,195.64672940599985,,195.63593684499983,195.64672940599985,196.64242474699995,196.64242474699995,196.64242474699995,196.64242474699995,196.65706924899996,197.6438809590004,197.6438809590004,199.91057900199985,,,,,v,1,2.258830769999804,None,956527,001,2024-10-17_22h47.21.728,motor sequence learning,2024.2.1,None,2024-10-17 22h47.32.257435 +0530,
150,v,10,10,3,v,1,2.261443067000073,None,,,,,3,10,10,1,199.92300815200042,,199.91095692099998,199.92300815200042,200.91132760899973,200.91132760899973,200.91132760899973,200.91132760899973,200.92519528799994,201.90849469100021,201.90849469100021,204.1752791009999,,,,,v,1,2.261443067000073,None,956527,001,2024-10-17_22h47.21.728,motor sequence learning,2024.2.1,None,2024-10-17 22h47.32.257435 +0530,
50,c,11,11,3,c,1,0.7136927629999263,None,,,,,3,11,11,2,204.187144901,,204.1757752160006,204.187144901,205.1739572020001,205.1739572020001,205.1739572020001,205.1739572020001,205.1879815289999,206.17716353900005,206.17716353900005,206.89684219499986,,,,,c,1,0.7136927629999263,None,956527,001,2024-10-17_22h47.21.728,motor sequence learning,2024.2.1,None,2024-10-17 22h47.32.257435 +0530,
-150,z,12,12,2,z,1,0.7880487950005772,None,,,,,2,12,12,3,206.90844912200055,,206.89751821300024,206.90844912200055,207.8955078290005,207.8955078290005,207.8955078290005,207.8955078290005,207.90929834400004,208.8957090580002,208.8957090580002,209.69893825500048,,,,,z,1,0.7880487950005772,None,956527,001,2024-10-17_22h47.21.728,motor sequence learning,2024.2.1,None,2024-10-17 22h47.32.257435 +0530,
150,v,13,13,4,v,1,0.8156760620004206,None,,,,,4,13,13,1,209.71155998899985,,209.6994922959998,209.71155998899985,210.70375544700028,210.70375544700028,210.70375544700028,210.70375544700028,210.71670663800023,211.6990199830002,211.6990199830002,212.51900074000014,,,,,v,1,0.8156760620004206,None,956527,001,2024-10-17_22h47.21.728,motor sequence learning,2024.2.1,None,2024-10-17 22h47.32.257435 +0530,
-150,z,14,14,3,z,1,0.7379260620000423,None,,,,,3,14,14,3,212.5306643050003,,212.51944707699977,212.5306643050003,213.52272157300058,213.52272157300058,213.52272157300058,213.52272157300058,213.53545207900015,214.5310763399998,214.5310763399998,215.2846220160004,,,,,z,1,0.7379260620000423,None,956527,001,2024-10-17_22h47.21.728,motor sequence learning,2024.2.1,None,2024-10-17 22h47.32.257435 +0530,
-50,x,15,15,2,x,1,0.7951446079996458,None,,,,,2,15,15,0,215.2955777379998,,215.28499704399974,215.2955777379998,216.29168441000047,216.29168441000047,216.29168441000047,216.29168441000047,216.30605022999998,217.2891457010005,217.2891457010005,218.0881324120005,,,,,x,1,0.7951446079996458,None,956527,001,2024-10-17_22h47.21.728,motor sequence learning,2024.2.1,None,2024-10-17 22h47.32.257435 +0530,
50,c,16,16,4,c,1,0.8784426849997544,None,,,,,4,16,16,2,218.09902316000034,,218.08852431900004,218.09902316000034,219.09268302300052,219.09268302300052,219.09268302300052,219.09268302300052,219.10645875199998,220.09055072100045,220.09055072100045,220.97997411999995,,,,,c,1,0.8784426849997544,None,956527,001,2024-10-17_22h47.21.728,motor sequence learning,2024.2.1,None,2024-10-17 22h47.32.257435 +0530,
150,v,17,17,5,v,1,0.8923742470005891,None,,,,,5,17,17,1,220.99181464999992,,220.9808001010001,220.99181464999992,221.98802723000017,221.98802723000017,221.98802723000017,221.98802723000017,222.00126721100014,222.98428833299977,222.98428833299977,223.88236520700002,,,,,v,1,0.8923742470005891,None,956527,001,2024-10-17_22h47.21.728,motor sequence learning,2024.2.1,None,2024-10-17 22h47.32.257435 +0530,
50,c,18,18,5,c,1,0.9602056949997859,None,,,,,5,18,18,2,223.89326705899975,,223.88286334699978,223.89326705899975,224.88402670799996,224.88402670799996,224.88402670799996,224.88402670799996,224.8974337499999,225.8896127820003,225.8896127820003,226.85445320400004,,,,,c,1,0.9602056949997859,None,956527,001,2024-10-17_22h47.21.728,motor sequence learning,2024.2.1,None,2024-10-17 22h47.32.257435 +0530,
-50,x,19,19,3,x,1,0.6907827850000103,None,,,,,3,19,19,0,226.86570653199988,,226.85483601199985,226.86570653199988,227.85860527100021,227.85860527100021,227.85860527100021,227.85860527100021,227.87430409099989,228.86520023500043,228.86520023500043,229.57009975699975,,,,,x,1,0.6907827850000103,None,956527,001,2024-10-17_22h47.21.728,motor sequence learning,2024.2.1,None,2024-10-17 22h47.32.257435 +0530,
-150,z,20,20,4,z,1,0.8391666659999828,None,,,,,4,20,20,3,229.58635626299974,,229.57065996899973,229.58635626299974,230.57330320899973,230.57330320899973,230.57330320899973,230.57330320899973,230.58704112500027,231.56962613899987,231.56962613899987,232.42018056500046,,,,,z,1,0.8391666659999828,None,956527,001,2024-10-17_22h47.21.728,motor sequence learning,2024.2.1,None,2024-10-17 22h47.32.257435 +0530,
-50,x,21,21,4,x,1,0.661829048999607,None,,,,,4,21,21,0,232.43303602900005,,232.42074992000062,232.43303602900005,233.42012832800037,233.42012832800037,233.42012832800037,233.42012832800037,233.43372355300062,234.4222754819998,234.4222754819998,235.08708102900027,,,,,x,1,0.661829048999607,None,956527,001,2024-10-17_22h47.21.728,motor sequence learning,2024.2.1,None,2024-10-17 22h47.32.257435 +0530,
150,v,22,22,6,v,1,0.919613684000069,None,,,,,6,22,22,1,235.09951011099974,,235.0876968280004,235.09951011099974,236.0942364970001,236.0942364970001,236.0942364970001,236.0942364970001,236.1121736760001,237.0920251829998,237.0920251829998,238.0184484940005,,,,,v,1,0.919613684000069,None,956527,001,2024-10-17_22h47.21.728,motor sequence learning,2024.2.1,None,2024-10-17 22h47.32.257435 +0530,
-150,z,23,23,5,z,1,0.6728851199995916,None,,,,,5,23,23,3,238.02942386800032,,238.0188627880002,238.02942386800032,239.0177706870004,239.0177706870004,239.0177706870004,239.0177706870004,239.03175240800056,240.0326202830006,240.0326202830006,240.71055437800032,,,,,z,1,0.6728851199995916,None,956527,001,2024-10-17_22h47.21.728,motor sequence learning,2024.2.1,None,2024-10-17 22h47.32.257435 +0530,
50,c,24,24,6,c,1,1.5096402849994774,None,,,,,6,24,24,2,240.7229043680004,,240.71108266400051,240.7229043680004,241.70811885600006,241.70811885600006,241.70811885600006,241.70811885600006,241.72236203700004,242.71705668000004,242.71705668000004,244.2458462310001,,,,,c,1,1.5096402849994774,None,956527,001,2024-10-17_22h47.21.728,motor sequence learning,2024.2.1,None,2024-10-17 22h47.32.257435 +0530,
150,v,25,25,7,v,1,0.8843079500002204,None,,,,,7,25,25,1,244.267939846,,244.24650617399993,244.267939846,245.2553515020004,245.2553515020004,245.2553515020004,245.2553515020004,245.26769449700032,246.25043549200063,246.25043549200063,247.14187802200058,,,,,v,1,0.8843079500002204,None,956527,001,2024-10-17_22h47.21.728,motor sequence learning,2024.2.1,None,2024-10-17 22h47.32.257435 +0530,
-50,x,26,26,5,x,1,0.9366318599995793,None,,,,,5,26,26,0,247.15310613300016,,247.142271489,247.15310613300016,248.1473568890001,248.1473568890001,248.1473568890001,248.1473568890001,248.1609345259999,249.15139618000057,249.15139618000057,250.09343534000027,,,,,x,1,0.9366318599995793,None,956527,001,2024-10-17_22h47.21.728,motor sequence learning,2024.2.1,None,2024-10-17 22h47.32.257435 +0530,
50,c,27,27,7,v,0,0.7057174279998435,None,,,,,7,27,27,2,250.10501317100034,,250.09382521399993,250.10501317100034,251.0945290700006,251.0945290700006,251.0945290700006,251.0945290700006,251.10938878499974,252.0928074489998,252.0928074489998,252.8099977730003,,,,,v,0,0.7057174279998435,None,956527,001,2024-10-17_22h47.21.728,motor sequence learning,2024.2.1,None,2024-10-17 22h47.32.257435 +0530,
-50,x,28,28,6,x,1,0.6286151800004518,None,,,,,6,28,28,0,252.82222059100013,,252.81036732799976,252.82222059100013,253.83064920700008,253.83064920700008,253.83064920700008,253.83064920700008,253.83064920700008,254.8097909640005,254.8097909640005,255.4489017890005,,,,,x,1,0.6286151800004518,None,956527,001,2024-10-17_22h47.21.728,motor sequence learning,2024.2.1,None,2024-10-17 22h47.32.257435 +0530,
50,c,29,29,8,c,1,0.7735856959998273,None,,,,,8,29,29,2,255.45953483400035,,255.44927733099985,255.45953483400035,256.46380103599995,256.46380103599995,256.46380103599995,256.46380103599995,256.4814652280006,257.4568789959999,257.4568789959999,258.2341436520005,,,,,c,1,0.7735856959998273,None,956527,001,2024-10-17_22h47.21.728,motor sequence learning,2024.2.1,None,2024-10-17 22h47.32.257435 +0530,
150,v,30,30,8,v,1,0.8454850469997837,None,,,,,8,30,30,1,258.2457720369998,,258.2346090920005,258.2457720369998,259.2404115730001,259.2404115730001,259.2404115730001,259.2404115730001,259.2548179600003,260.2402289050001,260.2402289050001,261.09278451599994,,,,,v,1,0.8454850469997837,None,956527,001,2024-10-17_22h47.21.728,motor sequence learning,2024.2.1,None,2024-10-17 22h47.32.257435 +0530,
-150,z,31,31,6,z,1,1.6617024500001207,None,,,,,6,31,31,3,261.10465444900046,,261.0931847659999,261.10465444900046,262.0991737670006,262.0991737670006,262.0991737670006,262.0991737670006,262.1122361590001,263.1038572090006,263.1038572090006,264.7775093290006,,,,,z,1,1.6617024500001207,None,956527,001,2024-10-17_22h47.21.728,motor sequence learning,2024.2.1,None,2024-10-17 22h47.32.257435 +0530,
-50,x,32,32,7,x,1,0.7313614519998737,None,,,,,7,32,32,0,264.7897492570005,,264.7778916990005,264.7897492570005,265.7788754730004,265.7788754730004,265.7788754730004,265.7788754730004,265.7931517870006,266.78486312799987,266.78486312799987,267.52028684400057,,,,,x,1,0.7313614519998737,None,956527,001,2024-10-17_22h47.21.728,motor sequence learning,2024.2.1,None,2024-10-17 22h47.32.257435 +0530,
50,c,33,33,9,c,1,1.532565927000178,None,,,,,9,33,33,2,267.53167813900063,,267.5207822180005,267.53167813900063,268.5158114380006,268.5158114380006,268.5158114380006,268.5158114380006,268.52960813300024,269.52726616100017,269.52726616100017,271.0661474530002,,,,,c,1,1.532565927000178,None,956527,001,2024-10-17_22h47.21.728,motor sequence learning,2024.2.1,None,2024-10-17 22h47.32.257435 +0530,
-50,x,34,34,8,x,1,0.907956803000161,None,,,,,8,34,34,0,271.0772875940006,,271.06652956900007,271.0772875940006,272.06467058499993,272.06467058499993,272.06467058499993,272.06467058499993,272.07838631799996,273.0752973620006,273.0752973620006,273.9858510910003,,,,,x,1,0.907956803000161,None,956527,001,2024-10-17_22h47.21.728,motor sequence learning,2024.2.1,None,2024-10-17 22h47.32.257435 +0530,
-150,z,35,35,7,z,1,3.7402821480000057,None,,,,,7,35,35,3,273.9977965379999,,273.98634899000035,273.9977965379999,274.9940096129999,274.9940096129999,274.9940096129999,274.9940096129999,274.9940096129999,275.99460453799975,275.99460453799975,279.7418477719998,,,,,z,1,3.7402821480000057,None,956527,001,2024-10-17_22h47.21.728,motor sequence learning,2024.2.1,None,2024-10-17 22h47.32.257435 +0530,
50,c,36,36,10,c,1,0.9071340369991958,None,,,,,10,36,36,2,279.7535986070002,,279.7423869440004,279.7535986070002,280.74132236000014,280.74132236000014,280.74132236000014,280.74132236000014,280.75557830000025,281.74789640800054,281.74789640800054,282.6602138439998,,,,,c,1,0.9071340369991958,None,956527,001,2024-10-17_22h47.21.728,motor sequence learning,2024.2.1,None,2024-10-17 22h47.32.257435 +0530,
150,v,37,37,9,v,1,0.6972657639998943,None,,,,,9,37,37,1,282.6732392830004,,282.6608033289999,282.6732392830004,283.6635144020006,283.6635144020006,283.6635144020006,283.6635144020006,283.67828950300054,284.6669872560001,284.6669872560001,285.3693031050002,,,,,v,1,0.6972657639998943,None,956527,001,2024-10-17_22h47.21.728,motor sequence learning,2024.2.1,None,2024-10-17 22h47.32.257435 +0530,
150,v,38,38,10,v,1,12.039432657000361,None,,,,,10,38,38,1,285.38079303400036,,285.3697166950001,285.38079303400036,286.3665205990005,286.3665205990005,286.3665205990005,286.3665205990005,286.38004299700015,287.37483061800003,287.37483061800003,299.4198096690002,,,,,v,1,12.039432657000361,None,956527,001,2024-10-17_22h47.21.728,motor sequence learning,2024.2.1,None,2024-10-17 22h47.32.257435 +0530,
-50,x,39,39,9,x,1,1.2327403839999533,None,,,,,9,39,39,0,299.4313026300001,,299.4202817420005,299.4313026300001,300.42732610400026,300.42732610400026,300.42732610400026,300.42732610400026,300.4418105609998,301.4249556870004,301.4249556870004,302.66851208399976,,,,,x,1,1.2327403839999533,None,956527,001,2024-10-17_22h47.21.728,motor sequence learning,2024.2.1,None,2024-10-17 22h47.32.257435 +0530,
-150,z,40,40,8,z,1,0.9281209049995596,None,,,,,8,40,40,3,302.6798863230001,,302.66888500100004,302.6798863230001,303.6726182160005,303.6726182160005,303.6726182160005,303.6726182160005,303.6866596270006,304.67041888999984,304.67041888999984,305.60564167300026,,,,,z,1,0.9281209049995596,None,956527,001,2024-10-17_22h47.21.728,motor sequence learning,2024.2.1,None,2024-10-17 22h47.32.257435 +0530,
-150,z,41,41,9,z,1,0.8081932269997196,None,,,,,9,41,41,3,305.61682125000016,,305.6060153980002,305.61682125000016,306.612066874,306.612066874,306.612066874,306.612066874,306.6258507810003,307.60706015799997,307.60706015799997,308.43525944300063,,,,,z,1,0.8081932269997196,None,956527,001,2024-10-17_22h47.21.728,motor sequence learning,2024.2.1,None,2024-10-17 22h47.32.257435 +0530,
-50,x,42,42,10,x,1,2.286451842000133,None,,,,,10,42,42,0,308.44507632700015,,308.4357419009998,308.44507632700015,309.44110604299976,309.44110604299976,309.44110604299976,309.44110604299976,309.4588677480001,310.43963574300005,310.43963574300005,312.73578589,,,,,x,1,2.286451842000133,None,956527,001,2024-10-17_22h47.21.728,motor sequence learning,2024.2.1,None,2024-10-17 22h47.32.257435 +0530,
-150,z,43,43,10,z,1,0.7273622849997992,None,,,,,10,43,43,3,312.7470375580001,,312.7361856450002,312.7470375580001,313.7442157830005,313.7442157830005,313.7442157830005,313.7442157830005,313.7442157830005,314.73595542500016,314.73595542500016,315.46626464500014,,,,,z,1,0.7273622849997992,None,956527,001,2024-10-17_22h47.21.728,motor sequence learning,2024.2.1,None,2024-10-17 22h47.32.257435 +0530,
-50,x,44,44,11,x,1,2.0201855979994434,None,,,,,11,44,44,0,315.4781270340004,,315.4666457500002,315.4781270340004,316.466390866,316.466390866,316.466390866,316.466390866,316.4799695810002,317.46341983400043,317.46341983400043,319.48996617200055,,,,,x,1,2.0201855979994434,None,956527,001,2024-10-17_22h47.21.728,motor sequence learning,2024.2.1,None,2024-10-17 22h47.32.257435 +0530,
150,v,45,45,11,v,1,0.8550364899992928,None,,,,,11,45,45,1,319.5013564400001,,319.49035318100005,319.5013564400001,320.49359349700035,320.49359349700035,320.49359349700035,320.49359349700035,320.5076519750005,321.48792125800037,321.48792125800037,322.3491711880001,,,,,v,1,0.8550364899992928,None,956527,001,2024-10-17_22h47.21.728,motor sequence learning,2024.2.1,None,2024-10-17 22h47.32.257435 +0530,
-150,z,46,46,11,z,1,0.7972053929997855,None,,,,,11,46,46,3,322.3600512380003,,322.34954541100024,322.3600512380003,323.36300004800023,323.36300004800023,323.36300004800023,323.36300004800023,323.37959835100037,324.35424444499995,324.35424444499995,325.16144194399976,,,,,z,1,0.7972053929997855,None,956527,001,2024-10-17_22h47.21.728,motor sequence learning,2024.2.1,None,2024-10-17 22h47.32.257435 +0530,
50,c,47,47,11,c,1,1.7556315530000575,None,,,,,11,47,47,2,325.17363242200054,,325.16191898199986,325.17363242200054,326.1619590310006,326.1619590310006,326.1619590310006,326.1619590310006,326.1756189540006,327.16039400599993,327.16039400599993,328.92139133699993,,,,,c,1,1.7556315530000575,None,956527,001,2024-10-17_22h47.21.728,motor sequence learning,2024.2.1,None,2024-10-17 22h47.32.257435 +0530,
